id: https://www.cdisc.org/cosmos/1-0
name: COSMoS-Biomedical-Concepts-Schema

imports:
  - linkml:types

prefixes:
  linkml: https://w3id.org/linkml/
  cosmos: https://www.cdisc.org/cosmos/1-0
  NCIT: http://purl.obolibrary.org/obo/NCIT_

default_prefix: cosmos

default_range: string

classes:

  SDTMGroup:
    tree_root: true
    slots:
      - packageDate
      - packageType
      - domain
      - shortName
      - datasetSpecializationId
      - source
      - sdtmigStartVersion
      - sdtmigEndVersion
      - biomedicalConceptId
      - variables

  SDTMVariable:
    slots:
      - name
      - dataElementConceptId
      - isNonStandard
      - codelist
      - subsetCodelist
      - valueList
      - assignedTerm
      - role
      - relationship
      - dataType
      - length
      - format
      - significantDigits
      - mandatoryVariable
      - mandatoryValue
      - originType
      - originSource
      - comparator
      - vlmTarget

  RelationShip:
    slots:
      - subject
      - linkingPhrase
      - predicateTerm
      - object

  CodeList:
    slots:
      - conceptId
      - href
      - submissionValue

  CodeListTerm:
    slots:
      - termId
      - termValue

  SubsetCodeList:
    slots:
      - parentCodelist
      - subsetShortName
      - subsetLabel
      - codelistTerm

  AssignedTerm:
    attributes:
      conceptId:
        required: false
        description: C-code for assigned term in NCIt or left blank when CDISC terminology does not apply
      value:
        required: true
        range: string
        description: Submission value for assigned term in NCIt if it exists, or an assigned value which will be the default value

slots:

  packageDate:
    required: true
    range: date
    description: Biomedical Concept package release date indicating when the BC package was published to production
  packageType:
    range: SDTMDatasetSpecializationPackageTypeEnum
    description: Package type (sdtm for SDTM Dataset Specializations)
    required: true
  domain:
    required: true
    description: Domain for the SDTM specialization group
  datasetSpecializationId:
    identifier: true
    required: true
    range: string
    description: Identifier for SDTM Value Level Metadata group
  source:
    required: true
    range: string
    description: SDTM VLM Source which categorizes VLM groups by topic variable
  shortName:
    required: true
    range: string
    description: SDTM group short name which provides a user friendly and intuitive name for the vlm_group_id
  sdtmigStartVersion:
    required: true
    description: The earliest SDTMIG version applicable to the BC dataset specialization
  sdtmigEndVersion:
    description: The last SDTMIG version that is applicable to the BC dataset specialization
  biomedicalConceptId:
    recommended: true
    range: string
    description: Biomedical Concept identifier foreign key
    pattern: "^(C[0123456789]+|NEW_[A-Z]*[0123456789]*)$"

  variables:
    multivalued: true
    inlined_as_list: true
    range: SDTMVariable
    description: Variable included in the SDTM dataset specialization
  name:
    description: Variable included in the SDTM dataset specialization
    range: string
    required: true
    identifier: true
  dataElementConceptId:
    range: string
    description: Biomedical Concept Data Element Concept identifier foreign key
    pattern: "^(C[0123456789]+|NEW_[A-Z]*[0123456789]*)$"
  isNonStandard:
    range: boolean
    description: Flag that indicates if the variable is a non-standard variable
  codelist:
    range: CodeList
    inlined: true
    description: Codelist
  subsetCodelist:
    description: Subset codelist short name

  conceptId:
    identifier: true
    required: true
    range: string
    description: C-code for a codelist in NCIt
    pattern: "^(C[0123456789]+)$"
  href:
    required: false
    range: uri
    description: Link to NCIt for the codelist
  submissionValue:
    required: true
    description: CDISC submission value for the codelist

  parentCodelist:
    required: true
    description: Subset codelist parent codelist
  subsetShortName:
    required: true
    description: Subset codelist short name
  subsetLabel:
    required: true
    description: Subset codelist label
  codelistTerm:
    required: true
    range: CodeListTerm
    multivalued: true
    inlined_as_list: true
  termId:
    required: true
    description: C-code term in subset codelist
  termValue:
    required: true
    description: Submision value of term in subset codelist
  valueList:
    multivalued: true
    inlined_as_list: true
    description: List of SDTM submission values used if subset codelist is not applicable

  assignedTerm:
    range: AssignedTerm

  role:
    range: RoleEnum
    description: SDTM variable role

  relationship:
    range: RelationShip
  subject:
    required: true
    description: Subject in a variable relationship
  linkingPhrase:
    required: true
    range: LinkingPhraseEnum
    description: Variable relationship descriptive linking phrase
  predicateTerm:
    required: true
    range: PredicateTermEnum
    description: Short variable relationship linking phrase for programming purposes
  object:
    required: true
    description: Object in a variable relationship

  dataType:
    range: SDTMVariableDataTypeEnum
    description: Variable data type
  length:
    range: integer
    minimum_value: 1
    description: Variable length
  format:
    description: Variable display format
  significantDigits:
    range: integer
    description: Variable significant_digits
  mandatoryVariable:
    range: boolean
    description: Indicator that variable must be present within the SDTM group
  mandatoryValue:
    range: boolean
    description: Indicator that variable must be populated within the SDTM group
  originType:
    range: OriginTypeEnum
    description: Variable origin type (define-XML v21)
  originSource:
    range: OriginSourceEnum
    description: Variable origin source (define-XML v21)
  comparator:
    range: ComparatorEnum
    description: Comparison operator for SDTM group variables included in VLM
  vlmTarget:
    range: boolean
    description: Target variable for VLM

enums:

  SDTMDatasetSpecializationPackageTypeEnum:
    permissible_values:
      sdtm:

  SDTMVariableDataTypeEnum:
    permissible_values:
      datetime:
        text: datetime
      durationDatetime:
        text: durationDatetime
      float:
        text: float
      integer:
        text: integer
      text:
        text:  text

  LinkingPhraseEnum:
    permissible_values:
      associates the tumor identified in:
      decodes the value in:
      describes actions taken:
      describes relationship of:
      describes the outcome of:
      further describes the test in:
      further specifies the anatomical location in:
      groups tumor assessments used in overall response identified by:
      groups values in:
      identifies a pattern of:
      identifies an observation described by:
      identifies overall response supported by tumor assessments identified by:
      identifies the image from the procedure in:
      identifies the tumor found by the test in:
      indicates occurrence of the value in:
      indicates pre-specification of the value in:
      indicates severity of:
      indicates the previous irradiation status of the tumor identified by:
      indicates the progression status of the previous irradiated tumor identified by:
      is a dictionary-derived term for the value in:
      is decoded by the value in:
      is original text for:
      is the administered amount of the treatment in:
      is the administration anatomical location for the treatment in:
      is the aspect of the event used to define the date in:
      is the clinical significance interpretation for:
      is the code for the value in:
      is the dictionary code for the test in:
      is the dictionary-derived term for the value in:
      is the dictionary-derived class code for the value in:
      is the dictionary-derived class name for the value in:
      is the duration for:
      is the end date for:
      is the epoch of the performance of the test in:
      is the frequency of administration of the amount in:
      is the identifier for the source data used in the performance of the test in:
      is the material type of the subject of the activity in:
      is the medical condition that is the reason for the treatment in:
      is the method for the test in:
      is the part of the body through which is administered the treatment in:
      is the physical form of the product in:
      is the result of the test in:
      is the role of the assessor who performed the test in:
      is the specimen tested in:
      is the start date for:
      is the subject position during performance of the test in:
      is the subject's fasting status during the performance of the test in:
      is the unit for the value in:
      is the unit for:
      specifies the anatomical location of:
      specifies the anatomical location of the performance of the test in:
      specifies the severity of:
      values are grouped by:
      was the subject position during performance of the test in:
      identifies the reference used in the genomic test in:
      indicates heritability of the genetic variant in:
      is an identifier for a published reference for the genetic variant in:
      is an identifier for the copy, on one of two homologous chromosones, of the genetic variant in:
      is an identifier for the genetic sequence of the genetic entity represented by:
      is the chromosome that is the position of the result in:
      is the date of occurrence:
      is the method of secondary analysis of results in:
      is the numeric location, within a chromosone, genetic entity, or genetic sub-region, of the result in:
      is the symbol for the genomic entity that is the position of the result in:
      is the type of genomic entity that is the position of the result in:
      is the genetic sub-location of the result in:

  PredicateTermEnum:
    permissible_values:
      DECODES:
      DESCRIBES:
      GROUPS:
      GROUPS_BY:
      IDENTIFIES:
      IDENTIFIES_OBSERVATION:
      IDENTIFIES_PRODUCT_IN:
      IDENTIFIES_TUMOR_IN:
      INDICATES:
      IS_ATTRIBUTE_FOR:
      IS_DECODED_BY:
      IS_DERIVED_FROM:
      IS_EPOCH_OF:
      IS_GROUPED_BY:
      IS_INDICATOR_FOR:
      IS_ORIGINAL_TEXT_FOR:
      IS_POSITION_FOR:
      IS_RESULT_OF:
      IS_SPECIMEN_TESTED_IN:
      IS_SUBJECT_STATE_FOR:
      IS_TIMING_FOR:
      IS_UNIT_FOR:
      PERFORMED:
      PERFORMS:
      SPECIFIES:

  OriginTypeEnum:
    description: Terminology relevant to the origin type for datasets in the Define-XML document.
    code_set: NCIT:C170449
    permissible_values:
      Assigned:
        description: A value that is derived through designation, such as values from a look up table or a label on a CRF.
        meaning: NCIT:C170547
      Collected:
        description: A value that is actually observed and recorded by a person or obtained by an instrument.
        meaning: NCIT:C170548
      Derived:
        description: A value that is calculated by an algorithm or reproducible rule, and which is dependent upon other data values.
        meaning: NCIT:C170549
      Predecessor:
        description: A value that is copied from a variable in another dataset.
        meaning: NCIT:C170550
      Protocol:
        description: A value that is included as part of the study protocol.
        meaning: NCIT:C170551

  OriginSourceEnum:
    description: Terminology relevant to the origin source for datasets in the Define-XML document.
    code_set: NCIT:C170450
    permissible_values:
      Investigator:
        description: A person responsible for the conduct of the clinical trial at a trial site. If a trial is conducted by a team of individuals at the trial site, the investigator is the responsible leader of the team and may be called the principal investigator.
        meaning: NCIT:C25936
      Sponsor:
        description: An individual, company, institution, or organization that takes responsibility for the initiation, management, and/or financing of a clinical study. [After ICH E6, WHO, 21 CFR 50.3 (e), and after IDMP]
        meaning: NCIT:C70793
      Subject:
        description: An individual who is observed, analyzed, examined, investigated, experimented upon, or/and treated in the course of a particular study.
        meaning: NCIT:C41189
      Vendor:
        description: A person or agency that promotes or exchanges goods or services for money. (NCI)
        meaning: NCIT:C68608

  RoleEnum:
    permissible_values:
      Identifier:
      Qualifier:
      Timing:
      Topic:

  ComparatorEnum:
    permissible_values:
      EQ:
      IN:
