{
   "$defs": {
      "AssignedTerm": {
         "additionalProperties": false,
         "description": "",
         "properties": {
            "code": {
               "description": "C-code for assigned term in NCIt or left blank when CDISC terminology does not apply",
               "type": "string"
            },
            "value": {
               "description": "Submission value for assigned term in NCIt if it exists, or an assigned value which will be the default value",
               "type": "string"
            }
         },
         "required": [
            "value"
         ],
         "title": "AssignedTerm",
         "type": "object"
      },
      "CodeList": {
         "additionalProperties": false,
         "description": "",
         "properties": {
            "id": {
               "description": "C-code for a codelist in NCIt",
               "type": "string"
            },
            "id_uri": {
               "description": "Link to NCIt for the codelist",
               "type": "string"
            },
            "submission_value": {
               "description": "CDISC submission value for the codelist",
               "type": "string"
            }
         },
         "required": [
            "submission_value",
            "id"
         ],
         "title": "CodeList",
         "type": "object"
      },
      "CodeListTerm": {
         "additionalProperties": false,
         "description": "",
         "properties": {
            "term_id": {
               "description": "C-code term in subset codelist",
               "type": "string"
            },
            "term_value": {
               "description": "Submision value of term in subset codelist",
               "type": "string"
            }
         },
         "required": [
            "term_id",
            "term_value"
         ],
         "title": "CodeListTerm",
         "type": "object"
      },
      "Comparator": {
         "description": "",
         "enum": [
            "EQ",
            "IN"
         ],
         "title": "Comparator",
         "type": "string"
      },
      "LinkingPhrase": {
         "description": "",
         "enum": [
            "decodes the value in",
            "is decoded by the value in",
            "groups values in",
            "is the subject position during performance of the test in",
            "is the result of the test in",
            "is the unit for the value in",
            "is the specimen tested in",
            "specifies the anatomical location of the performance of the test in",
            "further specifies the anatomical location in",
            "is the method for the test in",
            "is the subject's fasting status during the performance of the test in",
            "identifies an observation described by",
            "is the dictionary code for the test in"
         ],
         "title": "LinkingPhrase",
         "type": "string"
      },
      "OriginSource": {
         "description": "",
         "enum": [
            "Investigator",
            "Sponsor",
            "Subject",
            "Vendor"
         ],
         "title": "OriginSource",
         "type": "string"
      },
      "OriginType": {
         "description": "",
         "enum": [
            "Assigned",
            "Collected",
            "Derived",
            "Predecessor",
            "Protocol"
         ],
         "title": "OriginType",
         "type": "string"
      },
      "PredicateTerm": {
         "description": "",
         "enum": [
            "DECODES",
            "IS_DECODED_BY",
            "GROUPS",
            "IS_SUBJECT_STATE_FOR",
            "IS_RESULT_OF",
            "IS_UNIT_FOR",
            "IDENTIFIES_OBSERVATION",
            "IS_SPECIMEN_TESTED_IN",
            "SPECIFIES",
            "CODES"
         ],
         "title": "PredicateTerm",
         "type": "string"
      },
      "RelationShip": {
         "additionalProperties": false,
         "description": "",
         "properties": {
            "linking_phrase": {
               "$ref": "#/$defs/LinkingPhrase",
               "description": "Variable relationship descriptive linking phrase"
            },
            "object": {
               "description": "Object in a variable relationship",
               "type": "string"
            },
            "predicate_term": {
               "$ref": "#/$defs/PredicateTerm",
               "description": "Short variable relatio ship linking phrase for programming purposes"
            },
            "subject": {
               "description": "Subject in a variable relationship",
               "type": "string"
            }
         },
         "required": [
            "subject",
            "linking_phrase",
            "predicate_term",
            "object"
         ],
         "title": "RelationShip",
         "type": "object"
      },
      "Role": {
         "description": "",
         "enum": [
            "Topic",
            "Qualifier"
         ],
         "title": "Role",
         "type": "string"
      },
      "SDTMGroup": {
         "additionalProperties": false,
         "description": "",
         "properties": {
            "biomedical_concept_id": {
               "description": "Biomedical Concept identifier",
               "type": "string"
            },
            "domain": {
               "description": "Domain for the SDTM specialization group",
               "type": "string"
            },
            "group_short_name": {
               "description": "SDTM group short name which provides a user friendly and intuitive name for the vlm_group_id",
               "type": "string"
            },
            "package_date": {
               "description": "Biomedical Concept package release date indicating when the BC package was published to production",
               "format": "date",
               "type": "string"
            },
            "sdtm_variable": {
               "description": "Variable included in the SDTM dataset specialization",
               "items": {
                  "$ref": "#/$defs/SDTMVariable"
               },
               "type": "array"
            },
            "sdtmig_end_version": {
               "description": "The last SDTMIG version that is applicable to the BC dataset specialization",
               "type": "string"
            },
            "sdtmig_start_version": {
               "description": "The earliest SDTMIG version applicable to the BC dataset specialization",
               "type": "string"
            },
            "vlm_group_id": {
               "description": "Identifier for SDTM Value Level Metadata group",
               "type": "string"
            },
            "vlm_source": {
               "description": "SDTM VLM Source which categorizes VLM groups by topic variable",
               "type": "string"
            }
         },
         "required": [
            "package_date",
            "domain",
            "group_short_name",
            "vlm_group_id",
            "vlm_source",
            "sdtmig_start_version"
         ],
         "title": "SDTMGroup",
         "type": "object"
      },
      "SDTMVariable": {
         "additionalProperties": false,
         "description": "",
         "properties": {
            "assigned_term": {
               "$ref": "#/$defs/AssignedTerm"
            },
            "biomedical_concept_dec_id": {
               "description": "Biomedical Concept Data Element Concept idenfifier foreign key",
               "type": "string"
            },
            "codelist": {
               "description": "Codelist",
               "type": "string"
            },
            "comparator": {
               "$ref": "#/$defs/Comparator",
               "description": "Comparison operator for SDTM group variables included in VLM"
            },
            "data_type": {
               "$ref": "#/$defs/SDTMVariableDataType",
               "description": "Variable data type"
            },
            "format": {
               "description": "Variable display format",
               "type": "string"
            },
            "id": {
               "description": "Variable included in the SDTM dataset specialization",
               "type": "string"
            },
            "id_uri": {
               "description": "Hyperlink to the SDTM variable in CDISC Library.  Not populated if nsv_flag = \"Y\"",
               "type": "string"
            },
            "length": {
               "description": "Variable length",
               "minimum": 1,
               "type": "integer"
            },
            "mandatory_value": {
               "description": "Indicator that variable must be populated within the SDTM group",
               "type": "boolean"
            },
            "mandatory_variable": {
               "description": "Indicator that variable must be present within the SDTM group",
               "type": "boolean"
            },
            "nsv_flag": {
               "description": "Flag that indicates if the variable is a non-standard variable",
               "type": "boolean"
            },
            "origin_source": {
               "$ref": "#/$defs/OriginSource",
               "description": "Variable origin source (define-XML v21)"
            },
            "origin_type": {
               "$ref": "#/$defs/OriginType",
               "description": "Variable origin type (define-XML v21)"
            },
            "relationship": {
               "$ref": "#/$defs/RelationShip"
            },
            "role": {
               "description": "SDTM variable role",
               "type": "string"
            },
            "significant_digits": {
               "description": "Variable significant_digits",
               "type": "integer"
            },
            "subset_codelist": {
               "description": "Subset codelist short name",
               "type": "string"
            },
            "value_list": {
               "description": "List of SDTM submission values used if subset codelist is not applicable",
               "items": {
                  "type": "string"
               },
               "type": "array"
            },
            "vlm_target": {
               "description": "Target variable for VLM",
               "type": "boolean"
            }
         },
         "required": [
            "id"
         ],
         "title": "SDTMVariable",
         "type": "object"
      },
      "SDTMVariableDataType": {
         "description": "",
         "enum": [
            "float",
            "integer",
            "text"
         ],
         "title": "SDTMVariableDataType",
         "type": "string"
      },
      "SubsetCodeList": {
         "additionalProperties": false,
         "description": "",
         "properties": {
            "codelist_term": {
               "items": {
                  "$ref": "#/$defs/CodeListTerm"
               },
               "type": "array"
            },
            "parent_codelist": {
               "description": "Subset codelist parent codelist",
               "type": "string"
            },
            "subset_label": {
               "description": "Subset codelist label",
               "type": "string"
            },
            "subset_short_name": {
               "description": "Subset codelist short name",
               "type": "string"
            }
         },
         "required": [
            "parent_codelist",
            "subset_short_name",
            "subset_label",
            "codelist_term"
         ],
         "title": "SubsetCodeList",
         "type": "object"
      }
   },
   "$id": "https://www.cdisc.org/cosmos/1-0",
   "$schema": "http://json-schema.org/draft-07/schema#",
   "additionalProperties": true,
   "metamodel_version": "1.7.0",
   "properties": {
      "biomedical_concept_id": {
         "description": "Biomedical Concept identifier",
         "type": "string"
      },
      "domain": {
         "description": "Domain for the SDTM specialization group",
         "type": "string"
      },
      "group_short_name": {
         "description": "SDTM group short name which provides a user friendly and intuitive name for the vlm_group_id",
         "type": "string"
      },
      "package_date": {
         "description": "Biomedical Concept package release date indicating when the BC package was published to production",
         "format": "date",
         "type": "string"
      },
      "sdtm_variable": {
         "description": "Variable included in the SDTM dataset specialization",
         "items": {
            "$ref": "#/$defs/SDTMVariable"
         },
         "type": "array"
      },
      "sdtmig_end_version": {
         "description": "The last SDTMIG version that is applicable to the BC dataset specialization",
         "type": "string"
      },
      "sdtmig_start_version": {
         "description": "The earliest SDTMIG version applicable to the BC dataset specialization",
         "type": "string"
      },
      "vlm_group_id": {
         "description": "Identifier for SDTM Value Level Metadata group",
         "type": "string"
      },
      "vlm_source": {
         "description": "SDTM VLM Source which categorizes VLM groups by topic variable",
         "type": "string"
      }
   },
   "required": [
      "package_date",
      "domain",
      "group_short_name",
      "vlm_group_id",
      "vlm_source",
      "sdtmig_start_version"
   ],
   "title": "COSMoS-Biomedical-Concepts-Schema",
   "type": "object",
   "version": null
}

