packageDate: "2026-05-26"
packageType: sdtm
datasetSpecializationId: ADCDIF
domain: FT
shortName: "CDISC ADAS-Cog - Word Difficulty in Spontaneous Speech"
source: FT.FTTESTCD
sdtmigStartVersion: "3-2"
sdtmigEndVersion: ""
biomedicalConceptId: C100277
variables:
  - name: FTTESTCD
    isNonStandard: false
    codelist:
      conceptId: C100132
      href: https://evsexplore.semantics.cancer.gov/evsexplore/concept/ncit/C100132
      submissionValue: ADCTC
    assignedTerm:
      conceptId: C100277
      value: "ADCDIF"
    role: Topic
    relationship:
      subject: FTTESTCD
      linkingPhrase: is the code for the value in
      predicateTerm: IS_DECODED_BY
      object: FTTEST
    mandatoryVariable: true 
    mandatoryValue: true 
    originType: Assigned
    originSource: Sponsor
    comparator: EQ
  - name: FTTEST
    isNonStandard: false
    codelist:
      conceptId: C100131
      href: https://evsexplore.semantics.cancer.gov/evsexplore/concept/ncit/C100131
      submissionValue: ADCTN
    assignedTerm:
      conceptId: C100277
      value: "Word Finding Difficulty in Spont Speech"
    role: Qualifier
    relationship:
      subject: FTTEST
      linkingPhrase: decodes the value in
      predicateTerm: DECODES
      object: FTTESTCD
    mandatoryVariable: true 
    mandatoryValue: true 
    originType: Assigned
    originSource: Sponsor
  - name: FTCAT
    dataElementConceptId: C25372
    isNonStandard: false
    codelist:
      conceptId: C115304
      href: https://evsexplore.semantics.cancer.gov/evsexplore/concept/ncit/C115304
      submissionValue: FTCAT
    assignedTerm:
      conceptId: C100762
      value: "ADAS-COG"
    role: Qualifier
    relationship:
      subject: FTCAT
      linkingPhrase: groups values in
      predicateTerm: GROUPS
      object: FTTESTCD
    mandatoryVariable: true 
    mandatoryValue: true 
    comparator: EQ
  - name: FTSCAT
    dataElementConceptId: C25692
    isNonStandard: false
    role: Qualifier
    relationship:
      subject: FTSCAT
      linkingPhrase: groups values in
      predicateTerm: GROUPS
      object: FTCAT
    mandatoryVariable: false
    mandatoryValue: false
  - name: FTORRES
    dataElementConceptId: C91106
    isNonStandard: false
    valueList:
      - "No evidence of word finding difficulty in spontaneous speech"
      - "Very mild - 1 or 2 instances, not clinically significant"
      - "Mild - noticeable circumlocution or synonym substitution"
      - "Moderate - loss of words without compensation on occasion"
      - "Moderately severe - frequent loss of words without compensation"
      - "Severe - nearly total loss of content of words, speech sounds empty, 1-2 word utterances"
    role: Qualifier
    dataType: float
    length: 4
    format: "5.2"
    significantDigits: 2
    relationship:
      subject: FTORRES
      linkingPhrase: is the result of the test in
      predicateTerm: IS_RESULT_OF
      object: FTTESTCD
    mandatoryVariable: true 
    mandatoryValue: false
    originType: Collected
    originSource: Investigator
    vlmTarget: true 
  - name: FTSTRESC
    dataElementConceptId: C46126
    isNonStandard: false
    valueList:
      - "0"
      - "1"
      - "2"
      - "3"
      - "4"
      - "5"
    role: Qualifier
    dataType: float
    length: 4
    format: "5.2"
    significantDigits: 2
    relationship:
      subject: FTSTRESC
      linkingPhrase: is the result of the test in
      predicateTerm: IS_RESULT_OF
      object: FTTESTCD
    mandatoryVariable: true 
    mandatoryValue: false
    originType: Derived
    originSource: Sponsor
    vlmTarget: true 
  - name: FTSTRESN
    dataElementConceptId: C46126
    isNonStandard: false
    valueList:
      - "0"
      - "1"
      - "2"
      - "3"
      - "4"
      - "5"
    role: Qualifier
    dataType: float
    length: 4
    format: "5.2"
    significantDigits: 2
    relationship:
      subject: FTSTRESN
      linkingPhrase: is the result of the test in
      predicateTerm: IS_RESULT_OF
      object: FTTESTCD
    mandatoryVariable: true 
    mandatoryValue: false
    originType: Derived
    originSource: Sponsor
    vlmTarget: true 
  - name: FTSTAT
    dataElementConceptId: C41202
    isNonStandard: false
    codelist:
      conceptId: C66789
      href: https://evsexplore.semantics.cancer.gov/evsexplore/concept/ncit/C66789
      submissionValue: ND
    valueList:
      - "NOT DONE"
    role: Qualifier
    mandatoryVariable: false
    mandatoryValue: false
  - name: FTREASND
    dataElementConceptId: C82556
    isNonStandard: false
    role: Qualifier
    mandatoryVariable: false
    mandatoryValue: false
  - name: FTDTC
    dataElementConceptId: C82515
    isNonStandard: false
    role: Timing
    relationship:
      subject: FTDTC
      linkingPhrase: is the date of occurrence for
      predicateTerm: IS_TIMING_FOR
      object: FTTESTCD
    mandatoryVariable: true 
    mandatoryValue: false
