package_date,bc_id,vlm_group_id,standard,standard_start_version,standard_end_version,domain,crf_group_id,implementation_option,scenario,categories,short_name,crf_item,variable_name,dec_id,question_text,prompt,completion_instructions,order_number,mandatory_variable,data_type,length,significant_digits,display_hidden,derived_variable,derivation_description,codelist,codelist_submission_value,value_list,value_display_list,selection_type,prepopulated_term,prepopulated_code,sdtm_target_variable,sdtm_annotation
2026-06-30,C83347,,CDASHIG,2-1,,AE,AE,,,,Adverse Event Yes No Indicator,AEYN,AEYN,C83347,Were any adverse events experienced?,,,1,N,text,1,,N,N,,C66742,NY,N;Y,No;Yes,Single,,,,[NOT SUBMITTED]
2026-06-30,C179175,AE,CDASHIG,2-1,,AE,AE_DENORMALIZED,Denormalized,,,Adverse Event Free Text Format (Denormalized),AETERM,AETERM,C78541,What is the adverse event term?,,,1,Y,text,200,,N,N,,,,,,,,,AETERM,AETERM
2026-06-30,C179175,AE,CDASHIG,2-1,,AE,AE_DENORMALIZED,Denormalized,,,Adverse Event Free Text Format (Denormalized),AESTDAT,AESTDAT,C83215,What is the adverse event start date?,,,2,Y,date,10,,N,N,,,,,,,,,AESTDAT,AESTDAT
2026-06-30,C179175,AE,CDASHIG,2-1,,AE,AE_DENORMALIZED,Denormalized,,,Adverse Event Free Text Format (Denormalized),AEONGO,AEONGO,C83051,Is the adverse event ongoing (as of [the study-specific time point or period])?,,,3,N,text,1,,N,N,,,,N;Y,No;Yes,Single,,,AEENRTPT;AEENRF;AEENTPT,[NOT SUBMITTED];AEENRTPT; AEENRF;AEENTPT
2026-06-30,C179175,AE,CDASHIG,2-1,,AE,AE_DENORMALIZED,Denormalized,,,Adverse Event Free Text Format (Denormalized),AEENDAT,AEENDAT,C83201,What was the adverse event end date?,,,4,Y,date,10,,N,N,,,,,,,,,AEENDAT,AEENDAT
2026-06-30,C179175,AE,CDASHIG,2-1,,AE,AE_DENORMALIZED,Denormalized,,,Adverse Event Free Text Format (Denormalized),AESEV,AESEV,C53253,What is the severity of the adverse event?,,,5,N,text,200,,N,N,,C66769,AESEV,MILD;MODERATE;SEVERE,Mild;Moderate;Severe,Single,,,AESEV,AESEV
2026-06-30,C179175,AE,CDASHIG,2-1,,AE,AE_DENORMALIZED,Denormalized,,,Adverse Event Free Text Format (Denormalized),AESER,AESER,C53252,Was the adverse event serious?,,,6,Y,text,1,,N,N,,C66742,NY,N;Y,No;Yes,Single,,,AESER,AESER
2026-06-30,C179175,AE,CDASHIG,2-1,,AE,AE_DENORMALIZED,Denormalized,,,Adverse Event Free Text Format (Denormalized),AESDTH,AESDTH,C48275,Did the adverse event result in death?,,,7,N,text,1,,N,N,,C66742,NY,N;Y,No;Yes,Single,,,AESDTH,AESDTH
2026-06-30,C179175,AE,CDASHIG,2-1,,AE,AE_DENORMALIZED,Denormalized,,,Adverse Event Free Text Format (Denormalized),AESLIFE,AESLIFE,C84266,Was the adverse event life threatening?,,,8,N,text,1,,N,N,,C66742,NY,N;Y,No;Yes,Single,,,AESLIFE,AESLIFE
2026-06-30,C179175,AE,CDASHIG,2-1,,AE,AE_DENORMALIZED,Denormalized,,,Adverse Event Free Text Format (Denormalized),AESHOSP,AESHOSP,C83052,Did the adverse event result in initial or prolonged     hospitalization for the subject?,,,9,N,text,1,,N,N,,C66742,NY,N;Y,No;Yes,Single,,,AESHOSP,AESHOSP
2026-06-30,C179175,AE,CDASHIG,2-1,,AE,AE_DENORMALIZED,Denormalized,,,Adverse Event Free Text Format (Denormalized),AESDISAB,AESDISAB,C113380,Did the adverse event result in disability or permanent     damage?,,,10,N,text,1,,N,N,,C66742,NY,N;Y,No;Yes,Single,,,AESDISAB,AESDISAB
2026-06-30,C179175,AE,CDASHIG,2-1,,AE,AE_DENORMALIZED,Denormalized,,,Adverse Event Free Text Format (Denormalized),AESCONG,AESCONG,C83117,Was the adverse event associated with a congenital anomaly or birth defect?,,,11,N,text,1,,N,N,,C66742,NY,N;Y,No;Yes,Single,,,AESCONG,AESCONG
2026-06-30,C179175,AE,CDASHIG,2-1,,AE,AE_DENORMALIZED,Denormalized,,,Adverse Event Free Text Format (Denormalized),AESMIE,AESMIE,C83053,Was the adverse event a medically important event not covered by other serious criteria?,,,12,N,text,1,,N,N,,C66742,NY,N;Y,No;Yes,Single,,,AESMIE,AESMIE
2026-06-30,C179175,AE,CDASHIG,2-1,,AE,AE_DENORMALIZED,Denormalized,,,Adverse Event Free Text Format (Denormalized),AEREL,AEREL,C41358,Was this adverse event related to study treatment?,,,13,Y,text,1,,N,N,,C66742,NY,N;Y,No;Yes,Single,,,AEREL,AEREL
2026-06-30,C179175,AE,CDASHIG,2-1,,AE,AE_DENORMALIZED,Denormalized,,,Adverse Event Free Text Format (Denormalized),AEACN,AEACN,C83013,What action was taken with study treatment?,,,14,Y,text,200,,N,N,,C66767,ACN,DOSE INCREASED;DOSE NOT CHANGED;DOSE RATE REDUCED;DOSE REDUCED;DRUG INTERRUPTED;DRUG WITHDRAWN;NOT APPLICABLE;UNKNOWN,Dose Increased;Dose Not Changed;Dose Rate Reduced;Dose Reduced;Drug Interrupted;Drug Withdrawn;Not Applicable;Unknown,Multiple,,,AEACN,AEACN
2026-06-30,C179175,AE,CDASHIG,2-1,,AE,AE_DENORMALIZED,Denormalized,,,Adverse Event Free Text Format (Denormalized),AEACNOTH,AEACNOTH,C83109,What other action was taken?,,,15,N,text,200,,N,N,,,,,,,,,AEACNOTH,AEACNOTH
2026-06-30,C179175,AE,CDASHIG,2-1,,AE,AE_DENORMALIZED,Denormalized,,,Adverse Event Free Text Format (Denormalized),AEOUT,AEOUT,C49489,What is the outcome of this adverse event?,,,16,N,text,200,,N,N,,C66768,OUT,FATAL;NOT RECOVERED/NOT RESOLVED;RECOVERED/RESOLVED;RECOVERED/RESOLVED WITH SEQUELAE;RECOVERING/RESOLVING;UNKNOWN,Fatal;Not Recovered/Not Resolved;Recovered/Resolved;Recovered/Resolved With Sequelae;Recovering/Resolving;Unknown,Single,,,AEOUT,AEOUT
2026-06-30,C179175,AE,CDASHIG,2-1,,AE,AE_NORMALIZED,Normalized,,,Adverse Event Free Text Format (Normalized),AETERM,AETERM,C78541,,Adverse Event,,1,Y,text,200,,N,N,,,,,,,,,AETERM,AETERM
2026-06-30,C179175,AE,CDASHIG,2-1,,AE,AE_NORMALIZED,Normalized,,,Adverse Event Free Text Format (Normalized),AESTDAT,AESTDAT,C83215,,Start Date,,2,Y,date,10,,N,N,,,,,,,,,AESTDAT,AESTDAT
2026-06-30,C179175,AE,CDASHIG,2-1,,AE,AE_NORMALIZED,Normalized,,,Adverse Event Free Text Format (Normalized),AEONGO,AEONGO,C83051,,Ongoing (as of [the study-specific time point or period]),,3,N,text,1,,N,N,,,,N;Y,No;Yes,Single,,,AEENRTPT;AEENRF;AEENTPT,[NOT SUBMITTED];AEENRTPT; AEENRF;AEENTPT
2026-06-30,C179175,AE,CDASHIG,2-1,,AE,AE_NORMALIZED,Normalized,,,Adverse Event Free Text Format (Normalized),AEENDAT,AEENDAT,C83201,,End Date,,4,Y,date,10,,N,N,,,,,,,,,AEENDAT,AEENDAT
2026-06-30,C179175,AE,CDASHIG,2-1,,AE,AE_NORMALIZED,Normalized,,,Adverse Event Free Text Format (Normalized),AESEV,AESEV,C53253,,Severity,,5,N,text,200,,N,N,,C66769,AESEV,MILD;MODERATE;SEVERE,Mild;Moderate;Severe,Single,,,AESEV,AESEV
2026-06-30,C179175,AE,CDASHIG,2-1,,AE,AE_NORMALIZED,Normalized,,,Adverse Event Free Text Format (Normalized),AESER,AESER,C53252,,Serious,,6,Y,text,1,,N,N,,C66742,NY,N;Y,No;Yes,Single,,,AESER,AESER
2026-06-30,C179175,AE,CDASHIG,2-1,,AE,AE_NORMALIZED,Normalized,,,Adverse Event Free Text Format (Normalized),AESDTH,AESDTH,C48275,,Death,,7,N,text,1,,N,N,,C66742,NY,N;Y,No;Yes,Single,,,AESDTH,AESDTH
2026-06-30,C179175,AE,CDASHIG,2-1,,AE,AE_NORMALIZED,Normalized,,,Adverse Event Free Text Format (Normalized),AESLIFE,AESLIFE,C84266,,Life Threatening,,8,N,text,1,,N,N,,C66742,NY,N;Y,No;Yes,Single,,,AESLIFE,AESLIFE
2026-06-30,C179175,AE,CDASHIG,2-1,,AE,AE_NORMALIZED,Normalized,,,Adverse Event Free Text Format (Normalized),AESHOSP,AESHOSP,C83052,,Hospitalization (initial or prolonged),,9,N,text,1,,N,N,,C66742,NY,N;Y,No;Yes,Single,,,AESHOSP,AESHOSP
2026-06-30,C179175,AE,CDASHIG,2-1,,AE,AE_NORMALIZED,Normalized,,,Adverse Event Free Text Format (Normalized),AESDISAB,AESDISAB,C113380,,Disability or Permanent Damage,,10,N,text,1,,N,N,,C66742,NY,N;Y,No;Yes,Single,,,AESDISAB,AESDISAB
2026-06-30,C179175,AE,CDASHIG,2-1,,AE,AE_NORMALIZED,Normalized,,,Adverse Event Free Text Format (Normalized),AESCONG,AESCONG,C83117,,Congenital Anomaly or Birth Defect,,11,N,text,1,,N,N,,C66742,NY,N;Y,No;Yes,Single,,,AESCONG,AESCONG
2026-06-30,C179175,AE,CDASHIG,2-1,,AE,AE_NORMALIZED,Normalized,,,Adverse Event Free Text Format (Normalized),AESMIE,AESMIE,C83053,,Other Serious (Important Medical Events),,12,N,text,1,,N,N,,C66742,NY,N;Y,No;Yes,Single,,,AESMIE,AESMIE
2026-06-30,C179175,AE,CDASHIG,2-1,,AE,AE_NORMALIZED,Normalized,,,Adverse Event Free Text Format (Normalized),AEREL,AEREL,C41358,,Relationship to Study Treatment,,13,Y,text,1,,N,N,,C66742,NY,N;Y,No;Yes,Single,,,AEREL,AEREL
2026-06-30,C179175,AE,CDASHIG,2-1,,AE,AE_NORMALIZED,Normalized,,,Adverse Event Free Text Format (Normalized),AEACN,AEACN,C83013,,Action Taken with Study Treatment,,14,Y,text,200,,N,N,,C66767,ACN,DOSE INCREASED;DOSE NOT CHANGED;DOSE RATE REDUCED;DOSE REDUCED;DRUG INTERRUPTED;DRUG WITHDRAWN;NOT APPLICABLE;UNKNOWN,Dose Increased;Dose Not Changed;Dose Rate Reduced;Dose Reduced;Drug Interrupted;Drug Withdrawn;Not Applicable;Unknown,Multiple,,,AEACN,AEACN
2026-06-30,C179175,AE,CDASHIG,2-1,,AE,AE_NORMALIZED,Normalized,,,Adverse Event Free Text Format (Normalized),AEACNOTH,AEACNOTH,C83109,,Other Action Taken,,15,N,text,200,,N,N,,,,,,,,,AEACNOTH,AEACNOTH
2026-06-30,C179175,AE,CDASHIG,2-1,,AE,AE_NORMALIZED,Normalized,,,Adverse Event Free Text Format (Normalized),AEOUT,AEOUT,C49489,,Outcome,,16,N,text,200,,N,N,,C66768,OUT,FATAL;NOT RECOVERED/NOT RESOLVED;RECOVERED/RESOLVED;RECOVERED/RESOLVED WITH SEQUELAE;RECOVERING/RESOLVING;UNKNOWN,Fatal;Not Recovered/Not Resolved;Recovered/Resolved;Recovered/Resolved With Sequelae;Recovering/Resolving;Unknown,Single,,,AEOUT,AEOUT
2026-06-30,C83056,,CDASHIG,2-1,,CM,CM,,,,Concomittant Medications Yes No Indicator,CMYN,CMYN,,Were any concomitant medications taken?,,,1,Y,text,1,,N,N,,C66742,NY,,,Single,,,,[NOT SUBMITTED]
2026-06-30,C83056,,CDASHIG,2-1,,CM,CM,,,,Concomittant Medications Yes No Indicator,CMDAT,CMDAT,C82515,,Collection Date,,2,N,date,10,,N,N,,,,,,,,,CMDTC,CMDTC
2026-06-30,C53630,CMFREE,CDASHIG,2-1,,CM,CMFREE_NORMALIZED,Normalized,,,Concomitant Medication Free Text Format (Normalized),CMCAT,CMCAT,C25372,,Concomitant Medication Category,,1,N,text,200,,Y,N,,,,,,,,,CMCAT,CMCAT
2026-06-30,C53630,CMFREE,CDASHIG,2-1,,CM,CMFREE_NORMALIZED,Normalized,,,Concomitant Medication Free Text Format (Normalized),CMSCAT,CMSCAT,C25692,,Concomitant Medication Subcategory,,2,N,text,200,,Y,N,,,,,,,,,CMSCAT,CMSCAT
2026-06-30,C53630,CMFREE,CDASHIG,2-1,,CM,CMFREE_NORMALIZED,Normalized,,,Concomitant Medication Free Text Format (Normalized),CMTRT,CMTRT,C70902,,Concomitant Medication,,3,Y,text,200,,N,N,,,,,,,,,CMTRT,CMTRT
2026-06-30,C53630,CMFREE,CDASHIG,2-1,,CM,CMFREE_NORMALIZED,Normalized,,,Concomitant Medication Free Text Format (Normalized),CMINDC,CMINDC,C83085,,Indication,,4,N,text,200,,N,N,,,,,,,,,CMINDC,CMINDC
2026-06-30,C53630,CMFREE,CDASHIG,2-1,,CM,CMFREE_NORMALIZED,Normalized,,,Concomitant Medication Free Text Format (Normalized),CMDSTXT,CMDSTXT,,,Dose,,5,Y,text,100,,N,N,,,,,,,,,CMDOSE;CMDOSTXT,CMDOSE;CMDOSTXT
2026-06-30,C53630,CMFREE,CDASHIG,2-1,,CM,CMFREE_NORMALIZED,Normalized,,,Concomitant Medication Free Text Format (Normalized),CMDOSU,CMDOSU,C83034,,Unit,,6,Y,text,40,,N,N,,C71620,UNIT,,,Single,,,CMDOSU,CMDOSU
2026-06-30,C53630,CMFREE,CDASHIG,2-1,,CM,CMFREE_NORMALIZED,Normalized,,,Concomitant Medication Free Text Format (Normalized),CMDOSFRM,CMDOSFRM,C83110,,Dose Form,,7,N,text,40,,N,N,,C66726,FRM,,,Single,,,CMDOSFRM,CMDOSFRM
2026-06-30,C53630,CMFREE,CDASHIG,2-1,,CM,CMFREE_NORMALIZED,Normalized,,,Concomitant Medication Free Text Format (Normalized),CMDOSFRQ,CMDOSFRQ,C83042,,Frequency,,8,N,text,40,,N,N,,C71113,FREQ,,,Single,,,CMDOSFRQ,CMDOSFRQ
2026-06-30,C53630,CMFREE,CDASHIG,2-1,,CM,CMFREE_NORMALIZED,Normalized,,,Concomitant Medication Free Text Format (Normalized),CMROUTE,CMROUTE,C83120,,Route,,9,N,text,40,,N,N,,C66729,ROUTE,,,Single,,,CMROUTE,CMROUTE
2026-06-30,C53630,CMFREE,CDASHIG,2-1,,CM,CMFREE_NORMALIZED,Normalized,,,Concomitant Medication Free Text Format (Normalized),CMSTDAT,CMSTDTC,C83235,,Start Date,,10,Y,date,10,,N,N,,,,,,,,,CMSTDTC,CMSTDTC
2026-06-30,C53630,CMFREE,CDASHIG,2-1,,CM,CMFREE_NORMALIZED,Normalized,,,Concomitant Medication Free Text Format (Normalized),CMSTTIM,CMSTDTC,C83235,,Start Time,,11,N,time,5,,N,N,,,,,,,,,CMSTDTC,CMSTDTC
2026-06-30,C53630,CMFREE,CDASHIG,2-1,,CM,CMFREE_NORMALIZED,Normalized,,,Concomitant Medication Free Text Format (Normalized),CMPRIOR,CMPRIOR,,,Prior to Study,,12,N,text,1,,N,N,,C66742,NY,,,Single,,,CMSTRF;CMSTRTPT;CMSTTPT,[NOT SUBMITTED];CMSTRF;CMSTRTPT;CMSTTPT
2026-06-30,C53630,CMFREE,CDASHIG,2-1,,CM,CMFREE_NORMALIZED,Normalized,,,Concomitant Medication Free Text Format (Normalized),CMENDAT,CMENDTC,C83225,,End Date,,13,N,date,10,,N,N,,,,,,,,,CMENDTC,CMENDTC
2026-06-30,C53630,CMFREE,CDASHIG,2-1,,CM,CMFREE_NORMALIZED,Normalized,,,Concomitant Medication Free Text Format (Normalized),CMENTIM,CMENDTC,C83225,,End Time,,14,N,time,5,,N,N,,,,,,,,,CMENDTC,CMENDTC
2026-06-30,C53630,CMFREE,CDASHIG,2-1,,CM,CMFREE_NORMALIZED,Normalized,,,Concomitant Medication Free Text Format (Normalized),CMONGO,CMONGO,,,Ongoing,,15,N,text,1,,N,N,,C66742,NY,,,Single,,,CMENRF;CMENRTPT;CMENTPT,[NOT SUBMITTED];CMENRF;CMENRTPT;CMENTPT
2026-06-30,C53630,CMPRESP,CDASHIG,2-1,,CM,CMPRESP_NORMALIZED,Normalized,,,Concomitant Medication Prespecified (Normalized),CMCAT,CMCAT,C25372,,Concomitant Medication Category,,1,N,text,200,,Y,N,,,,,,,,,CMCAT,CMCAT
2026-06-30,C53630,CMPRESP,CDASHIG,2-1,,CM,CMPRESP_NORMALIZED,Normalized,,,Concomitant Medication Prespecified (Normalized),CMSCAT,CMSCAT,C25692,,Concomitant Medication Subcategory,,2,N,text,200,,Y,N,,,,,,,,,CMSCAT,CMSCAT
2026-06-30,C53630,CMPRESP,CDASHIG,2-1,,CM,CMPRESP_NORMALIZED,Normalized,,,Concomitant Medication Prespecified (Normalized),CMINDC,CMINDC,C83085,,Indication,,3,N,text,200,,N,N,,,,,,,,,CMINDC,CMINDC
2026-06-30,C53630,CMPRESP,CDASHIG,2-1,,CM,CMPRESP_NORMALIZED,Normalized,,,Concomitant Medication Prespecified (Normalized),CMTRT,CMTRT,C70902,,Concomitant Medication,,4,Y,text,200,,N,N,,,,,,,,,CMTRT,CMTRT
2026-06-30,C53630,CMPRESP,CDASHIG,2-1,,CM,CMPRESP_NORMALIZED,Normalized,,,Concomitant Medication Prespecified (Normalized),CMPRESP,CMPRESP,C171000,,Prespecified,,5,Y,text,1,,Y,N,,C66742,NY,,,Single,,,CMPRESP,CMPRESP
2026-06-30,C53630,CMPRESP,CDASHIG,2-1,,CM,CMPRESP_NORMALIZED,Normalized,,,Concomitant Medication Prespecified (Normalized),CMOCCUR,CMOCCUR,C127786,,Medication Taken,,6,Y,text,1,,N,N,,C66742,NY,,,Single,,,CMOCCUR,CMOCCUR
2026-06-30,C53630,CMPRESP,CDASHIG,2-1,,CM,CMPRESP_NORMALIZED,Normalized,,,Concomitant Medication Prespecified (Normalized),CMDSTXT,CMDSTXT,,,Dose,,7,Y,text,100,,N,N,,,,,,,,,CMDOSE;CMDOSTXT,CMDOSE;CMDOSTXT
2026-06-30,C53630,CMPRESP,CDASHIG,2-1,,CM,CMPRESP_NORMALIZED,Normalized,,,Concomitant Medication Prespecified (Normalized),CMDOSU,CMDOSU,C83034,,Unit,,8,Y,text,40,,N,N,,C71620,UNIT,,,Single,,,CMDOSU,CMDOSU
2026-06-30,C53630,CMPRESP,CDASHIG,2-1,,CM,CMPRESP_NORMALIZED,Normalized,,,Concomitant Medication Prespecified (Normalized),CMDOSFRM,CMDOSFRM,C83110,,Dose Form,,9,N,text,40,,N,N,,C66726,FRM,,,Single,,,CMDOSFRM,CMDOSFRM
2026-06-30,C53630,CMPRESP,CDASHIG,2-1,,CM,CMPRESP_NORMALIZED,Normalized,,,Concomitant Medication Prespecified (Normalized),CMDOSFRQ,CMDOSFRQ,C83042,,Frequency,,10,N,text,40,,N,N,,C71113,FREQ,,,Single,,,CMDOSFRQ,CMDOSFRQ
2026-06-30,C53630,CMPRESP,CDASHIG,2-1,,CM,CMPRESP_NORMALIZED,Normalized,,,Concomitant Medication Prespecified (Normalized),CMROUTE,CMROUTE,C83120,,Route,,11,N,text,40,,N,N,,C66729,ROUTE,,,Single,,,CMROUTE,CMROUTE
2026-06-30,C53630,CMPRESP,CDASHIG,2-1,,CM,CMPRESP_NORMALIZED,Normalized,,,Concomitant Medication Prespecified (Normalized),CMSTDAT,CMSTDTC,C83235,,Start Date,,12,Y,date,10,,N,N,,,,,,,,,CMSTDTC,CMSTDTC
2026-06-30,C53630,CMPRESP,CDASHIG,2-1,,CM,CMPRESP_NORMALIZED,Normalized,,,Concomitant Medication Prespecified (Normalized),CMSTTIM,CMSTDTC,C83235,,Start Time,,13,N,time,5,,N,N,,,,,,,,,CMSTDTC,CMSTDTC
2026-06-30,C53630,CMPRESP,CDASHIG,2-1,,CM,CMPRESP_NORMALIZED,Normalized,,,Concomitant Medication Prespecified (Normalized),CMPRIOR,CMPRIOR,,,Prior to Study,,14,N,text,1,,N,N,,C66742,NY,,,Single,,,CMSTRF;CMSTRTPT;CMSTTPT,[NOT SUBMITTED];CMSTRF;CMSTRTPT;CMSTTPT
2026-06-30,C53630,CMPRESP,CDASHIG,2-1,,CM,CMPRESP_NORMALIZED,Normalized,,,Concomitant Medication Prespecified (Normalized),CMENDAT,CMENDTC,C83225,,End Date,,15,N,date,10,,N,N,,,,,,,,,CMENDTC,CMENDTC
2026-06-30,C53630,CMPRESP,CDASHIG,2-1,,CM,CMPRESP_NORMALIZED,Normalized,,,Concomitant Medication Prespecified (Normalized),CMENTIM,CMENDTC,C83225,,End Time,,16,N,time,5,,N,N,,,,,,,,,CMENDTC,CMENDTC
2026-06-30,C53630,CMPRESP,CDASHIG,2-1,,CM,CMPRESP_NORMALIZED,Normalized,,,Concomitant Medication Prespecified (Normalized),CMONGO,CMONGO,,,Ongoing,,17,N,text,1,,N,N,,C66742,NY,,,Single,,,CMENRF;CMENRTPT;CMENTPT,[NOT SUBMITTED];CMENRF;CMENRTPT;CMENTPT
2026-06-30,C53630,CMPRIORBREASTCANCER,CDASHIG,2-1,,CM,CMPRIORBREASTCANCER_NORMALIZED,Normalized,,,Concomitant Therapy Breast Cancer Prior Treatment (Normalized),CMCAT,CMCAT,C25372,,Concomitant Medication Category,,1,N,text,200,,Y,N,,,,,,,ANTI-CANCER THERAPY,,CMCAT,CMCAT = ANTI-CANCER THERAPY
2026-06-30,C53630,CMPRIORBREASTCANCER,CDASHIG,2-1,,CM,CMPRIORBREASTCANCER_NORMALIZED,Normalized,,,Concomitant Therapy Breast Cancer Prior Treatment (Normalized),CMINDC,CMINDC,C83085,,Indication,,2,N,text,200,,Y,N,,,,,,,BREAST CANCER,,CMINDC,CMINDC = BREAST CANCER
2026-06-30,C53630,CMPRIORBREASTCANCER,CDASHIG,2-1,,CM,CMPRIORBREASTCANCER_NORMALIZED,Normalized,,,Concomitant Therapy Breast Cancer Prior Treatment (Normalized),CMGRPID,CMGRPID,,,Group Identifier,,3,Y,text,20,,N,N,,,,1;2,1;2,Single,,,CMGRPID,CMGRPID
2026-06-30,C53630,CMPRIORBREASTCANCER,CDASHIG,2-1,,CM,CMPRIORBREASTCANCER_NORMALIZED,Normalized,,,Concomitant Therapy Breast Cancer Prior Treatment (Normalized),CMTRT,CMTRT,C70902,,Concomitant Medication,,4,Y,text,200,,N,N,,,,ABEMACICLIB;VERZENIO;ANASTROZOLE;ARIMIDEX;CAPECITABINE;XELODA;CYCLOPHOSPHAMIDE;CYTOXAN;NEOSAR;DOCETAXEL;TAXOTERE;DOXORUBICIN ADRIAMYCIN;EVEROLIMUS;AFINITOR;EXEMESTANE;AROMASIN;FULVESTRANT;FASLODEX;GEMCITABINE;GEMZAR;LAPATINIB;TYKERB;NERATINIB;NERLYNX;PACLITAXEL;ONXOL;TAXOL;PALBOCICLIB;IBRANCE;PEMBROLIZUMAB;KEYTRUDA;PERTUZUMAB;PERJETA;PETUZUMAB;RALOXIFENE;EVISTA;RIBOCICLIB;KISQALI;TAMOXIFEN;SOLTAMOX;TRASTUZUMAB;HERCEPTIN;TUCATINIB;TUKYSA;VINFLUNNINE;JAVLOR,Abemaciclib;Verzenio;Anastrozole;Arimidex;Capecitabine;Xeloda;Cyclophosphamide;Cytoxan;Neosar;Docetaxel;Taxotere;Doxorubicin Adriamycin;Everolimus;Afinitor;Exemestane;Aromasin;Fulvestrant;Faslodex;Gemcitabine;Gemzar;Lapatinib;Tykerb;Neratinib;Nerlynx;Paclitaxel;Onxol;Taxol;Palbociclib;Ibrance;Pembrolizumab;Keytruda;Pertuzumab;Perjeta;Petuzumab;Raloxifene;Evista;Ribociclib;Kisqali;Tamoxifen;Soltamox;Trastuzumab;Herceptin;Tucatinib;Tukysa;Vinflunnine;Javlor,Single,,,CMTRT,CMTRT
2026-06-30,C53630,CMPRIORBREASTCANCER,CDASHIG,2-1,,CM,CMPRIORBREASTCANCER_NORMALIZED,Normalized,,,Concomitant Therapy Breast Cancer Prior Treatment (Normalized),CMPRESP,CMPRESP,C171000,,Prespecified,,5,Y,text,1,,Y,N,,C66742,NY,,,Single,,,CMPRESP,CMPRESP
2026-06-30,C53630,CMPRIORBREASTCANCER,CDASHIG,2-1,,CM,CMPRIORBREASTCANCER_NORMALIZED,Normalized,,,Concomitant Therapy Breast Cancer Prior Treatment (Normalized),CMOCCUR,CMOCCUR,C127786,,Medication Taken,,6,Y,text,1,,Y,N,,C66742,NY,,,Single,,,CMOCCUR,CMOCCUR
2026-06-30,C53630,CMPRIORBREASTCANCER,CDASHIG,2-1,,CM,CMPRIORBREASTCANCER_NORMALIZED,Normalized,,,Concomitant Therapy Breast Cancer Prior Treatment (Normalized),CMTRTSTT,CMTRTSTT,,,Treatment Setting,,7,N,text,200,,N,N,,C124308,TRTSET,ADJUVANT;METASTATIC;NEO-ADJUVANT,Adjuvant;Metastatic;Neo-Adjuvant,Single,,,CMTRTSTT,CMTRTSTT
2026-06-30,C53630,CMPRIORBREASTCANCER,CDASHIG,2-1,,CM,CMPRIORBREASTCANCER_NORMALIZED,Normalized,,,Concomitant Therapy Breast Cancer Prior Treatment (Normalized),CMTRTINT,CMTRTINT,,,Treatment Intent,,8,N,text,200,,N,N,,C124307,TRTINTNT,PALLIATIVE;CURATIVE,Palliative;Curative,Single,,,CMTRTINT,CMTRTINT
2026-06-30,C53630,CMPRIORBREASTCANCER,CDASHIG,2-1,,CM,CMPRIORBREASTCANCER_NORMALIZED,Normalized,,,Concomitant Therapy Breast Cancer Prior Treatment (Normalized),CMDSTXT,CMDSTXT,,,Dose,,9,Y,text,100,,N,N,,,,,,,,,CMDOSE;CMDOSTXT,CMDOSE;CMDOSTXT
2026-06-30,C53630,CMPRIORBREASTCANCER,CDASHIG,2-1,,CM,CMPRIORBREASTCANCER_NORMALIZED,Normalized,,,Concomitant Therapy Breast Cancer Prior Treatment (Normalized),CMDOSU,CMDOSU,C83034,,Unit,,10,Y,text,40,,N,N,,C71620,UNIT,,,Single,,,CMDOSU,CMDOSU
2026-06-30,C53630,CMPRIORBREASTCANCER,CDASHIG,2-1,,CM,CMPRIORBREASTCANCER_NORMALIZED,Normalized,,,Concomitant Therapy Breast Cancer Prior Treatment (Normalized),CMDOSFRM,CMDOSFRM,C83110,,Dose Form,,11,N,text,40,,N,N,,C66726,FRM,,,Single,,,CMDOSFRM,CMDOSFRM
2026-06-30,C53630,CMPRIORBREASTCANCER,CDASHIG,2-1,,CM,CMPRIORBREASTCANCER_NORMALIZED,Normalized,,,Concomitant Therapy Breast Cancer Prior Treatment (Normalized),CMDOSFRQ,CMDOSFRQ,C83042,,Frequency,,12,N,text,40,,N,N,,C71113,FREQ,,,Single,,,CMDOSFRQ,CMDOSFRQ
2026-06-30,C53630,CMPRIORBREASTCANCER,CDASHIG,2-1,,CM,CMPRIORBREASTCANCER_NORMALIZED,Normalized,,,Concomitant Therapy Breast Cancer Prior Treatment (Normalized),CMDOSRGM,CMDOSRGM,,,Dose Regimen,,13,N,text,200,,N,N,,,,,,,,,CMDOSRGM,CMDOSRGM
2026-06-30,C53630,CMPRIORBREASTCANCER,CDASHIG,2-1,,CM,CMPRIORBREASTCANCER_NORMALIZED,Normalized,,,Concomitant Therapy Breast Cancer Prior Treatment (Normalized),CMROUTE,CMROUTE,C83120,,Route,,14,N,text,200,,N,N,,C66729,ROUTE,,,Single,,,CMROUTE,CMROUTE
2026-06-30,C53630,CMPRIORBREASTCANCER,CDASHIG,2-1,,CM,CMPRIORBREASTCANCER_NORMALIZED,Normalized,,,Concomitant Therapy Breast Cancer Prior Treatment (Normalized),CMSTDAT,CMSTDTC,C83235,,Start Date,,15,Y,date,10,,N,N,,,,,,,,,CMSTDTC,CMSTDTC
2026-06-30,C53630,CMPRIORBREASTCANCER,CDASHIG,2-1,,CM,CMPRIORBREASTCANCER_NORMALIZED,Normalized,,,Concomitant Therapy Breast Cancer Prior Treatment (Normalized),CMSTTIM,CMSTDTC,C83235,,Start Time,,16,N,time,5,,N,N,,,,,,,,,CMSTDTC,CMSTDTC
2026-06-30,C53630,CMPRIORBREASTCANCER,CDASHIG,2-1,,CM,CMPRIORBREASTCANCER_NORMALIZED,Normalized,,,Concomitant Therapy Breast Cancer Prior Treatment (Normalized),CMPRIOR,CMPRIOR,,,Prior to Study,,17,N,text,1,,N,N,,C66742,NY,,,Single,,,CMSTRF;CMSTRTPT;CMSTTPT,[NOT SUBMITTED];CMSTRF;CMSTRTPT;CMSTTPT
2026-06-30,C53630,CMPRIORBREASTCANCER,CDASHIG,2-1,,CM,CMPRIORBREASTCANCER_NORMALIZED,Normalized,,,Concomitant Therapy Breast Cancer Prior Treatment (Normalized),CMENDAT,CMENDTC,C83225,,End Date,,18,N,date,10,,N,N,,,,,,,,,CMENDTC,CMENDTC
2026-06-30,C53630,CMPRIORBREASTCANCER,CDASHIG,2-1,,CM,CMPRIORBREASTCANCER_NORMALIZED,Normalized,,,Concomitant Therapy Breast Cancer Prior Treatment (Normalized),CMENTIM,CMENDTC,C83225,,End Time,,19,N,time,5,,N,N,,,,,,,,,CMENDTC,CMENDTC
2026-06-30,C53630,CMPRIORBREASTCANCER,CDASHIG,2-1,,CM,CMPRIORBREASTCANCER_NORMALIZED,Normalized,,,Concomitant Therapy Breast Cancer Prior Treatment (Normalized),CMONGO,CMONGO,,,Ongoing,,20,N,text,1,,N,N,,C66742,NY,,,Single,,,CMENRF;CMENRTPT;CMENTPT,[NOT SUBMITTED];CMENRF;CMENRTPT;CMENTPT
2026-06-30,C53630,CMPRIORBREASTCANCER,CDASHIG,2-1,,CM,CMPRIORBREASTCANCER_NORMALIZED,Normalized,,,Concomitant Therapy Breast Cancer Prior Treatment (Normalized),CMRSDISC,CMRSDISC,,,Reason for Discontinuation,,21,N,text,200,,N,N,,,,COMPLETED PRESCRIBED REGIMEN;DISEASE PROGRESSION,Completed Prescribed Regimen;Disease Progression,Single,,,CMRSDISC,CMRSDISC
2026-06-30,C69260,AGE,CDASHIG,2-1,,DM,AGE,,,,AGE,DMDAT,DMDAT,C82515,,Collection Date,,1,N,date,10,,N,N,,,,,,,,,DMDTC,DMDTC
2026-06-30,C69260,AGE,CDASHIG,2-1,,DM,AGE,,,,AGE,AGE,AGE,C170981,What is the subject's age?,,,2,Y,integer,3,,N,N,,,,,,,,,AGE,AGE
2026-06-30,C69260,AGE,CDASHIG,2-1,,DM,AGE,,,,AGE,AGEU,AGEU,C50400,,Age Unit,,3,Y,text,20,,N,N,,C66781,AGEU,DAYS;HOURS;MONTHS;WEEKS;YEARS,Days;Hours;Months;Weeks;Years,Single,,,AGEU,AGEU
2026-06-30,C83217,BRTHDTC,CDASHIG,2-1,,DM,BRTHDTC,,,,Date/Time of Birth,DMDAT,DMDAT,C82515,,Collection Date,,1,N,date,10,,N,N,,,,,,,,,DMDTC,DMDTC
2026-06-30,C83217,BRTHDTC,CDASHIG,2-1,,DM,BRTHDTC,,,,Date/Time of Birth,BRTHDAT,BRTHDAT,C70856,What is the subject's date of birth?,,,2,Y,date,10,,N,N,,,,,,,,,BRTHDTC,BRTHDTC
2026-06-30,C83217,BRTHDTC,CDASHIG,2-1,,DM,BRTHDTC,,,,Date/Time of Birth,BRTHTIM,BRTHTIM,C70856,What is the subject's time of birth?,,,3,N,time,5,,N,N,,,,,,,,,BRTHDTC,BRTHDTC
2026-06-30,C83217,BRTHDTC,CDASHIG,2-1,,DM,BRTHDTC_SHORT,,Date Only,,Date of Birth,BRTHDAT,BRTHDAT,C70856,What is the subject's date of birth?,,,1,Y,date,10,,N,N,,,,,,,,,BRTHDTC,BRTHDTC
2026-06-30,C16564,ETHNIC,CDASHIG,2-1,,DM,ETHNIC,,,,ETHNIC,DMDAT,DMDAT,C82515,,Collection Date,,1,N,date,10,,N,N,,,,,,,,,DMDTC,DMDTC
2026-06-30,C16564,ETHNIC,CDASHIG,2-1,,DM,ETHNIC,,,,ETHNIC,ETHNIC,ETHNIC,C16564,What is the ethnicity of the subject?,,,2,Y,text,100,,N,N,,C66790,ETHNIC,HISPANIC OR LATINO;NOT HISPANIC OR LATINO;NOT REPORTED;UNKNOWN,Hispanic Or Latino;Not Hispanic Or Latino;Not Reported;Unknown,Single,,,ETHNIC,ETHNIC
2026-06-30,C17049,RACE,CDASHIG,2-1,,DM,RACE,,,,RACE,DMDAT,DMDAT,C82515,,Collection Date,,1,N,date,10,,N,N,,,,,,,,,DMDTC,DMDTC
2026-06-30,C17049,RACE,CDASHIG,2-1,,DM,RACE,,,,RACE,RACE,RACE,C17049,Which of the following five racial designations best describes you?,,,2,Y,text,100,,N,N,,C74457,RACE,AMERICAN INDIAN OR ALASKA NATIVE;ASIAN;BLACK OR AFRICAN AMERICAN;NATIVE HAWAIIAN OR OTHER PACIFIC ISLANDER;NOT REPORTED;OTHER;UNKNOWN;WHITE,American Indian Or Alaska Native;Asian;Black Or African American;Native Hawaiian Or Other Pacific Islander;Not Reported;Other;Unknown;White,Multiple,,,RACE,RACE
2026-06-30,C17049,RACE,CDASHIG,2-1,,DM,RACE,,,,RACE,RACEOTH,RACEOTH,,,Specify Other Race,,3,Y,text,200,,N,N,,,,,,,,,RACEOTH,RACEOTH in SUPPDM
2026-06-30,C28421,SEX,CDASHIG,2-1,,DM,SEX,,,,SEX,DMDAT,DMDAT,C82515,,Collection Date,,1,N,date,10,,N,N,,,,,,,,,DMDTC,DMDTC
2026-06-30,C28421,SEX,CDASHIG,2-1,,DM,SEX,,,,SEX,SEX,SEX,C28421,What is the sex of the subject?,,,2,Y,text,100,,N,N,,C66731,SEX,F;M;U;INTERSEX,Female;Male;Unknown;Intersex,Single,,,SEX,SEX
2026-06-30,C28421,SEX,CDASHIG,2-1,,DM,SEX_MF,,Sex Male Female Only,,SEX,SEX,SEX,C28421,,Sex,,1,Y,text,100,,N,N,,C66731,SEX,F;M,Female;Male,Single,,,SEX,SEX
2026-06-30,C41331,ADVEVENT,CDASHIG,2-1,,DS,ADVEVENT_CONT,,Study Continuation,,Adverse Event,DSCAT,DSCAT,C82977,,Disposition Category,,1,Y,text,200,,Y,N,,C74558,DSCAT,,,,DISPOSITION EVENT,C74590,DSCAT,DSCAT
2026-06-30,C41331,ADVEVENT,CDASHIG,2-1,,DS,ADVEVENT_CONT,,Study Continuation,,Adverse Event,DSSCAT,DSSCAT,C25692,,Disposition Subcategory,,2,Y,text,200,,Y,N,,C170443,DSSCAT,,,,,,DSSCAT,DSSCAT
2026-06-30,C41331,ADVEVENT,CDASHIG,2-1,,DS,ADVEVENT_CONT,,Study Continuation,,Adverse Event,DSDECOD,DSDECOD,C82977,What was the subject's status at the <protocol-specified timepoint>,,,3,Y,text,200,,N,N,,C66727,NCOMPLT,,,,ADVERSE EVENT,C41331,DSDECOD,DSDECOD
2026-06-30,C41331,ADVEVENT,CDASHIG,2-1,,DS,ADVEVENT_CONT,,Study Continuation,,Adverse Event,DSTERM,DSTERM,C82571,,"If adverse event, specify",,4,Y,text,200,,N,N,,,,,,,,,DSTERM,DSTERM
2026-06-30,C41331,ADVEVENT,CDASHIG,2-1,,DS,ADVEVENT_CONT,,Study Continuation,,Adverse Event,DSSTDAT,DSSTDAT,C82517,What was the date of disontinuation?,,,5,Y,date,10,,N,N,,,,,,,,,DSSTDTC,DSSTDTC
2026-06-30,C41331,ADVEVENT,CDASHIG,2-1,,DS,ADVEVENT_EOS,,End of Study,,Adverse Event,DSCAT,DSCAT,C82977,,Disposition Category,,1,Y,text,200,,Y,N,,C74558,DSCAT,,,,DISPOSITION EVENT,C74590,DSCAT,DSCAT
2026-06-30,C41331,ADVEVENT,CDASHIG,2-1,,DS,ADVEVENT_EOS,,End of Study,,Adverse Event,DSSCAT,DSSCAT,C25692,,Disposition Subcategory,,2,Y,text,200,,Y,N,,C170443,DSSCAT,,,,STUDY PARTICIPATION,,DSSCAT,DSSCAT
2026-06-30,C41331,ADVEVENT,CDASHIG,2-1,,DS,ADVEVENT_EOS,,End of Study,,Adverse Event,DSDECOD,DSDECOD,C82977,What was the subject's status at the end of study?,,,3,Y,text,200,,N,N,,C66727,NCOMPLT,,,,ADVERSE EVENT,C41331,DSDECOD,DSDECOD
2026-06-30,C41331,ADVEVENT,CDASHIG,2-1,,DS,ADVEVENT_EOS,,End of Study,,Adverse Event,DSTERM,DSTERM,C82571,,"If adverse event, specify",,4,Y,text,200,,N,N,,,,,,,,,DSTERM,DSTERM
2026-06-30,C41331,ADVEVENT,CDASHIG,2-1,,DS,ADVEVENT_EOS,,End of Study,,Adverse Event,DSSTDAT,DSSTDAT,C82517,What was the date of disontinuation?,,,5,Y,date,10,,N,N,,,,,,,,,DSSTDTC,DSSTDTC
2026-06-30,C41331,ADVEVENT,CDASHIG,2-1,,DS,ADVEVENT_EOT,,End of Treatment,,Adverse Event,DSCAT,DSCAT,C82977,,Disposition Category,,1,Y,text,200,,Y,N,,C74558,DSCAT,,,,DISPOSITION EVENT,C74590,DSCAT,DSCAT
2026-06-30,C41331,ADVEVENT,CDASHIG,2-1,,DS,ADVEVENT_EOT,,End of Treatment,,Adverse Event,DSSCAT,DSSCAT,C25692,,Disposition Subcategory,,2,Y,text,200,,Y,N,,C170443,DSSCAT,,,,,,DSSCAT,DSSCAT
2026-06-30,C41331,ADVEVENT,CDASHIG,2-1,,DS,ADVEVENT_EOT,,End of Treatment,,Adverse Event,DSDECOD,DSDECOD,C82977,What was the subject's status at the end of treatment?,,,3,Y,text,200,,N,N,,C66727,NCOMPLT,,,,ADVERSE EVENT,C41331,DSDECOD,DSDECOD
2026-06-30,C41331,ADVEVENT,CDASHIG,2-1,,DS,ADVEVENT_EOT,,End of Treatment,,Adverse Event,DSTERM,DSTERM,C82571,,"If adverse event, specify",,4,Y,text,200,,N,N,,,,,,,,,DSTERM,DSTERM
2026-06-30,C41331,ADVEVENT,CDASHIG,2-1,,DS,ADVEVENT_EOT,,End of Treatment,,Adverse Event,DSSTDAT,DSSTDAT,C82517,What was the date of the end of treatment?,,,5,Y,date,10,,N,N,,,,,,,,,DSSTDTC,DSSTDTC
2026-06-30,C16735,CONSENT,CDASHIG,2-1,,DS,CONSENT,,Informed Consent,,Informed Consent Obtained,DSCAT,DSCAT,C82977,,Disposition Category,,1,Y,text,200,,Y,N,,C74558,DSCAT,,,,PROTOCOL MILESTONE,C74588,DSCAT,DSCAT
2026-06-30,C16735,CONSENT,CDASHIG,2-1,,DS,CONSENT,,Informed Consent,,Informed Consent Obtained,DSSCAT,DSSCAT,C25692,,Disposition Subcategory,,2,N,text,100,,Y,N,,,,,,,,,DSSCAT,DSSCAT
2026-06-30,C16735,CONSENT,CDASHIG,2-1,,DS,CONSENT,,Informed Consent,,Informed Consent Obtained,DSDECOD,DSDECOD,C82977,,Disposition Event,,3,Y,text,200,,Y,N,,C114118,PROTMLST,,,,INFORMED CONSENT OBTAINED,C16735,DSDECOD,DSDECOD
2026-06-30,C16735,CONSENT,CDASHIG,2-1,,DS,CONSENT,,Informed Consent,,Informed Consent Obtained,DSSTDAT,DSSTDAT,C82517,What was the informed consent date?,,,4,Y,date,10,,N,N,,,,,,,,,DSSTDTC,DSSTDTC
2026-06-30,C16735,CONSENT,CDASHIG,2-1,,DS,CONSENT_360,,LZZT study - 360i pilot,,Informed Consent Obtained,DSCAT,DSCAT,C82977,,Disposition Category,,1,Y,text,200,,Y,N,,C74558,DSCAT,,,,PROTOCOL MILESTONE,C74588,DSCAT,DSCAT
2026-06-30,C16735,CONSENT,CDASHIG,2-1,,DS,CONSENT_360,,LZZT study - 360i pilot,,Informed Consent Obtained,DSSCAT,DSSCAT,C25692,,Disposition Subcategory,,2,N,text,100,,Y,N,,,,,,,,,DSSCAT,DSSCAT
2026-06-30,C16735,CONSENT,CDASHIG,2-1,,DS,CONSENT_360,,LZZT study - 360i pilot,,Informed Consent Obtained,DSDECOD,DSDECOD,C82977,,Disposition Event,,3,Y,text,200,,Y,N,,C114118,PROTMLST,,,,INFORMED CONSENT OBTAINED,C16735,DSDECOD,DSDECOD
2026-06-30,C16735,CONSENT,CDASHIG,2-1,,DS,CONSENT_360,,LZZT study - 360i pilot,,Informed Consent Obtained,DSSTDAT,DSSTDAT,C82517,Date patient and caregiver signed the consent document,,,4,Y,date,10,,N,N,,,,,,,,,DSSTDTC,DSSTDTC
2026-06-30,C49634,CONSWDRL,CDASHIG,2-1,,DS,CONSWDRL,,Consent Withdrawal,,Withdrawal of Consent from Protocol-Specified Activity,DSCAT,DSCAT,C82977,,Disposition Category,,1,Y,text,200,,Y,N,,C74558,DSCAT,,,,OTHER EVENT,C150824,DSCAT,DSCAT
2026-06-30,C49634,CONSWDRL,CDASHIG,2-1,,DS,CONSWDRL,,Consent Withdrawal,,Withdrawal of Consent from Protocol-Specified Activity,DSSCAT,DSSCAT,C25692,,Disposition Subcategory,,2,N,text,200,,Y,N,,C170443,DSSCAT,,,,,,DSSCAT,DSSCAT
2026-06-30,C49634,CONSWDRL,CDASHIG,2-1,,DS,CONSWDRL,,Consent Withdrawal,,Withdrawal of Consent from Protocol-Specified Activity,DSDECOD,DSDECOD,C82977,,Disposition Event,,3,Y,text,200,,N,N,,C150811,OTHEVENT,,,,WITHDRAWAL OF CONSENT FROM PROTOCOL-SPECIFIED ACTIVITY,C170610,DSDECOD,DSDECOD
2026-06-30,C49634,CONSWDRL,CDASHIG,2-1,,DS,CONSWDRL,,Consent Withdrawal,,Withdrawal of Consent from Protocol-Specified Activity,DSSTDAT,DSSTDAT,C82517,What was the date of withdrawal?,,,4,Y,date,10,,N,N,,,,,,,,,DSSTDTC,DSSTDTC
2026-06-30,C28554,DEAD,CDASHIG,2-1,,DS,DEAD_CONT,,Study Continuation,,Dead,DSCAT,DSCAT,C82977,,Disposition Category,,1,Y,text,200,,Y,N,,C74558,DSCAT,,,,DISPOSITION EVENT,C74590,DSCAT,DSCAT
2026-06-30,C28554,DEAD,CDASHIG,2-1,,DS,DEAD_CONT,,Study Continuation,,Dead,DSSCAT,DSSCAT,C25692,,Disposition Subcategory,,2,Y,text,200,,Y,N,,C170443,DSSCAT,,,,,,DSSCAT,DSSCAT
2026-06-30,C28554,DEAD,CDASHIG,2-1,,DS,DEAD_CONT,,Study Continuation,,Dead,DSDECOD,DSDECOD,C82977,What was the subject's status at the <protocol-specified timepoint>,,,3,Y,text,200,,N,N,,C66727,NCOMPLT,,,,DEATH,C28554,DSDECOD,DSDECOD
2026-06-30,C28554,DEAD,CDASHIG,2-1,,DS,DEAD_CONT,,Study Continuation,,Dead,DSTERM,DSTERM,C82571,,"If death, specify",,4,Y,text,200,,N,N,,,,,,,,,DSTERM,DSTERM
2026-06-30,C28554,DEAD,CDASHIG,2-1,,DS,DEAD_CONT,,Study Continuation,,Dead,DSSTDAT,DSSTDAT,C82517,What was the date of disontinuation?,,,5,Y,date,10,,N,N,,,,,,,,,DSSTDTC,DSSTDTC
2026-06-30,C28554,DEAD,CDASHIG,2-1,,DS,DEAD_EOS,,End of Study,,Dead,DSCAT,DSCAT,C82977,,Disposition Category,,1,Y,text,200,,Y,N,,C74558,DSCAT,,,,DISPOSITION EVENT,C74590,DSCAT,DSCAT
2026-06-30,C28554,DEAD,CDASHIG,2-1,,DS,DEAD_EOS,,End of Study,,Dead,DSSCAT,DSSCAT,C25692,,Disposition Subcategory,,2,Y,text,200,,Y,N,,C170443,DSSCAT,,,,,,DSSCAT,DSSCAT
2026-06-30,C28554,DEAD,CDASHIG,2-1,,DS,DEAD_EOS,,End of Study,,Dead,DSDECOD,DSDECOD,C82977,What was the subject's status at the end of study?,,,3,Y,text,200,,N,N,,C66727,NCOMPLT,,,,DEATH,C28554,DSDECOD,DSDECOD
2026-06-30,C28554,DEAD,CDASHIG,2-1,,DS,DEAD_EOS,,End of Study,,Dead,DSTERM,DSTERM,C82571,,"If death, specify",,4,Y,text,200,,N,N,,,,,,,,,DSTERM,DSTERM
2026-06-30,C28554,DEAD,CDASHIG,2-1,,DS,DEAD_EOS,,End of Study,,Dead,DSSTDAT,DSSTDAT,C82517,What was the date of disontinuation?,,,5,Y,date,10,,N,N,,,,,,,,,DSSTDTC,DSSTDTC
2026-06-30,C28554,DEAD,CDASHIG,2-1,,DS,DEAD_EOT,,End of Treatment,,Dead,DSCAT,DSCAT,C82977,,Disposition Category,,1,Y,text,200,,Y,N,,C74558,DSCAT,,,,DISPOSITION EVENT,C74590,DSCAT,DSCAT
2026-06-30,C28554,DEAD,CDASHIG,2-1,,DS,DEAD_EOT,,End of Treatment,,Dead,DSSCAT,DSSCAT,C25692,,Disposition Subcategory,,2,Y,text,200,,Y,N,,C170443,DSSCAT,,,,,,DSSCAT,DSSCAT
2026-06-30,C28554,DEAD,CDASHIG,2-1,,DS,DEAD_EOT,,End of Treatment,,Dead,DSDECOD,DSDECOD,C82977,What was the subject's status at the end of treatment?,,,3,Y,text,200,,N,N,,C66727,NCOMPLT,,,,DEATH,C28554,DSDECOD,DSDECOD
2026-06-30,C28554,DEAD,CDASHIG,2-1,,DS,DEAD_EOT,,End of Treatment,,Dead,DSTERM,DSTERM,C82571,,"If death, specify",,4,Y,text,200,,N,N,,,,,,,,,DSTERM,DSTERM
2026-06-30,C28554,DEAD,CDASHIG,2-1,,DS,DEAD_EOT,,End of Treatment,,Dead,DSSTDAT,DSSTDAT,C82517,What was the date of the end of treatment?,,,5,Y,date,10,,N,N,,,,,,,,,DSSTDTC,DSSTDTC
2026-06-30,C132447,ELIGMET,CDASHIG,2-1,,DS,ELIGMET,,Eligibility Criteria,,Eligibility Criteria Met,DSCAT,DSCAT,C82977,,Disposition Category,,1,Y,text,200,,Y,N,,C74558,DSCAT,,,,PROTOCOL MILESTONE,C74588,DSCAT,DSCAT
2026-06-30,C132447,ELIGMET,CDASHIG,2-1,,DS,ELIGMET,,Eligibility Criteria,,Eligibility Criteria Met,DSSCAT,DSSCAT,C25692,,Disposition Subcategory,,2,N,text,100,,Y,N,,,,,,,,,DSSCAT,DSSCAT
2026-06-30,C132447,ELIGMET,CDASHIG,2-1,,DS,ELIGMET,,Eligibility Criteria,,Eligibility Criteria Met,DSDECOD,DSDECOD,C82977,,Disposition Event,,3,Y,text,200,,N,N,,C114118,PROTMLST,,,,ELIGIBILITY CRITERIA MET,C132447,DSDECOD,DSDECOD
2026-06-30,C132447,ELIGMET,CDASHIG,2-1,,DS,ELIGMET,,Eligibility Criteria,,Eligibility Criteria Met,DSSTDAT,DSSTDAT,C82517,What was the date the eligibility criteria assessment was performed?,,,4,Y,date,10,,N,N,,,,,,,,,DSSTDTC,DSSTDTC
2026-06-30,C49634,FAILCONT,CDASHIG,2-1,,DS,FAILCONT,,Study Continuation,,Failure to Meet Continuation Criteria,DSCAT,DSCAT,C82977,,Disposition Category,,1,Y,text,200,,Y,N,,C74558,DSCAT,,,,DISPOSITION EVENT,C74590,DSCAT,DSCAT
2026-06-30,C49634,FAILCONT,CDASHIG,2-1,,DS,FAILCONT,,Study Continuation,,Failure to Meet Continuation Criteria,DSSCAT,DSSCAT,C25692,,Disposition Subcategory,,2,N,text,200,,Y,N,,C170443,DSSCAT,,,,,,DSSCAT,DSSCAT
2026-06-30,C49634,FAILCONT,CDASHIG,2-1,,DS,FAILCONT,,Study Continuation,,Failure to Meet Continuation Criteria,DSDECOD,DSDECOD,C82977,,Disposition Event,,3,Y,text,200,,N,N,,C66727,NCOMPLT,,,,FAILURE TO MEET CONTINUATION CRITERIA,C139236,DSDECOD,DSDECOD
2026-06-30,C49634,FAILCONT,CDASHIG,2-1,,DS,FAILCONT,,Study Continuation,,Failure to Meet Continuation Criteria,DSSTDAT,DSSTDAT,C82517,What was the date of disontinuation?,,,4,Y,date,10,,N,N,,,,,,,,,DSSTDTC,DSSTDTC
2026-06-30,C49634,FAILRAND,CDASHIG,2-1,,DS,FAILRAND,,Study Continuation,,Failure to Meet Randomization Criteria,DSCAT,DSCAT,C82977,,Disposition Category,,1,Y,text,200,,Y,N,,C74558,DSCAT,,,,DISPOSITION EVENT,,DSCAT,DSCAT
2026-06-30,C49634,FAILRAND,CDASHIG,2-1,,DS,FAILRAND,,Study Continuation,,Failure to Meet Randomization Criteria,DSSCAT,DSSCAT,C25692,,Disposition Subcategory,,2,N,text,200,,Y,N,,C170443,DSSCAT,,,,,,DSSCAT,DSSCAT
2026-06-30,C49634,FAILRAND,CDASHIG,2-1,,DS,FAILRAND,,Study Continuation,,Failure to Meet Randomization Criteria,DSDECOD,DSDECOD,C82977,What was the subject's status at the <protocol-specified timepoint>,,,3,Y,text,200,,N,N,,C66727,NCOMPLT,,,,FAILURE TO MEET RANDOMIZATION CRITERIA,C105448,DSDECOD,DSDECOD
2026-06-30,C49634,FAILRAND,CDASHIG,2-1,,DS,FAILRAND,,Study Continuation,,Failure to Meet Randomization Criteria,DSSTDAT,DSSTDAT,C82517,What was the date of disontinuation?,,,4,Y,date,10,,N,N,,,,,,,,,DSSTDTC,DSSTDTC
2026-06-30,C48226,LACKEFFICACY,CDASHIG,2-1,,DS,LACKEFFICACY_CONT,,Study Continuation,,Lack of Efficacy,DSCAT,DSCAT,C82977,,Disposition Category,,1,Y,text,200,,Y,N,,C74558,DSCAT,,,,DISPOSITION EVENT,C74590,DSCAT,DSCAT
2026-06-30,C48226,LACKEFFICACY,CDASHIG,2-1,,DS,LACKEFFICACY_CONT,,Study Continuation,,Lack of Efficacy,DSSCAT,DSSCAT,C25692,,Disposition Subcategory,,2,Y,text,200,,Y,N,,C170443,DSSCAT,,,,,,DSSCAT,DSSCAT
2026-06-30,C48226,LACKEFFICACY,CDASHIG,2-1,,DS,LACKEFFICACY_CONT,,Study Continuation,,Lack of Efficacy,DSDECOD,DSDECOD,C82977,What was the subject's status at the <protocol-specified timepoint>,,,3,Y,text,200,,N,N,,C66727,NCOMPLT,,,,LACK OF EFFICACY,C48226,DSDECOD,DSDECOD
2026-06-30,C48226,LACKEFFICACY,CDASHIG,2-1,,DS,LACKEFFICACY_CONT,,Study Continuation,,Lack of Efficacy,DSSTDAT,DSSTDAT,C82517,What was the date of disontinuation?,,,4,Y,date,10,,N,N,,,,,,,,,DSSTDTC,DSSTDTC
2026-06-30,C48226,LACKEFFICACY,CDASHIG,2-1,,DS,LACKEFFICACY_EOS,,End of Study,,Lack of Efficacy,DSCAT,DSCAT,C82977,,Disposition Category,,1,Y,text,200,,Y,N,,C74558,DSCAT,,,,DISPOSITION EVENT,C74590,DSCAT,DSCAT
2026-06-30,C48226,LACKEFFICACY,CDASHIG,2-1,,DS,LACKEFFICACY_EOS,,End of Study,,Lack of Efficacy,DSSCAT,DSSCAT,C25692,,Disposition Subcategory,,2,Y,text,200,,Y,N,,C170443,DSSCAT,,,,,,DSSCAT,DSSCAT
2026-06-30,C48226,LACKEFFICACY,CDASHIG,2-1,,DS,LACKEFFICACY_EOS,,End of Study,,Lack of Efficacy,DSDECOD,DSDECOD,C82977,What was the subject's status at the end of study?,,,3,Y,text,200,,N,N,,C66727,NCOMPLT,,,,LACK OF EFFICACY,C48226,DSDECOD,DSDECOD
2026-06-30,C48226,LACKEFFICACY,CDASHIG,2-1,,DS,LACKEFFICACY_EOS,,End of Study,,Lack of Efficacy,DSSTDAT,DSSTDAT,C82517,What was the date of disontinuation?,,,4,Y,date,10,,N,N,,,,,,,,,DSSTDTC,DSSTDTC
2026-06-30,C48226,LACKEFFICACY,CDASHIG,2-1,,DS,LACKEFFICACY_EOT,,End of Treatment,,Lack of Efficacy,DSCAT,DSCAT,C82977,,Disposition Category,,1,Y,text,200,,Y,N,,C74558,DSCAT,,,,DISPOSITION EVENT,C74590,DSCAT,DSCAT
2026-06-30,C48226,LACKEFFICACY,CDASHIG,2-1,,DS,LACKEFFICACY_EOT,,End of Treatment,,Lack of Efficacy,DSSCAT,DSSCAT,C25692,,Disposition Subcategory,,2,Y,text,200,,Y,N,,C170443,DSSCAT,,,,,,DSSCAT,DSSCAT
2026-06-30,C48226,LACKEFFICACY,CDASHIG,2-1,,DS,LACKEFFICACY_EOT,,End of Treatment,,Lack of Efficacy,DSDECOD,DSDECOD,C82977,What was the subject's status at the end of treatment?,,,3,Y,text,200,,N,N,,C66727,NCOMPLT,,,,LACK OF EFFICACY,C48226,DSDECOD,DSDECOD
2026-06-30,C48226,LACKEFFICACY,CDASHIG,2-1,,DS,LACKEFFICACY_EOT,,End of Treatment,,Lack of Efficacy,DSSTDAT,DSSTDAT,C82517,What was the date of the end of treatment?,,,4,Y,date,10,,N,N,,,,,,,,,DSSTDTC,DSSTDTC
2026-06-30,C48227,LTFUP,CDASHIG,2-1,,DS,LTFUP_EOS,,End of Study,,Lost to Follow Up,DSCAT,DSCAT,C82977,,Disposition Category,,1,Y,text,200,,Y,N,,C74558,DSCAT,,,,DISPOSITION EVENT,C74590,DSCAT,DSCAT
2026-06-30,C48227,LTFUP,CDASHIG,2-1,,DS,LTFUP_EOS,,End of Study,,Lost to Follow Up,DSSCAT,DSSCAT,C25692,,Disposition Subcategory,,2,Y,text,200,,Y,N,,C170443,DSSCAT,,,,,,DSSCAT,DSSCAT
2026-06-30,C48227,LTFUP,CDASHIG,2-1,,DS,LTFUP_EOS,,End of Study,,Lost to Follow Up,DSDECOD,DSDECOD,C82977,What was the subject's status at the end of study?,,,3,Y,text,200,,N,N,,C66727,NCOMPLT,,,,LOST TO FOLLOW-UP,C48227,DSDECOD,DSDECOD
2026-06-30,C48227,LTFUP,CDASHIG,2-1,,DS,LTFUP_EOS,,End of Study,,Lost to Follow Up,DSSTDAT,DSSTDAT,C82517,What was the date of disontinuation?,,,4,Y,date,10,,N,N,,,,,,,,,DSSTDTC,DSSTDTC
2026-06-30,C48250,PHYDECISION,CDASHIG,2-1,,DS,PHYDECISION_CONT,,Study Continuation,,Physician Decision,DSCAT,DSCAT,C82977,,Disposition Category,,1,Y,text,200,,Y,N,,C74558,DSCAT,,,,DISPOSITION EVENT,C74590,DSCAT,DSCAT
2026-06-30,C48250,PHYDECISION,CDASHIG,2-1,,DS,PHYDECISION_CONT,,Study Continuation,,Physician Decision,DSSCAT,DSSCAT,C25692,,Disposition Subcategory,,2,Y,text,200,,Y,N,,C170443,DSSCAT,,,,,,DSSCAT,DSSCAT
2026-06-30,C48250,PHYDECISION,CDASHIG,2-1,,DS,PHYDECISION_CONT,,Study Continuation,,Physician Decision,DSDECOD,DSDECOD,C82977,What was the subject's status at the <protocol-specified timepoint>,,,3,Y,text,200,,N,N,,C66727,NCOMPLT,,,,PHYSICIAN DECISION,C48250,DSDECOD,DSDECOD
2026-06-30,C48250,PHYDECISION,CDASHIG,2-1,,DS,PHYDECISION_CONT,,Study Continuation,,Physician Decision,DSSTDAT,DSSTDAT,C82517,What was the date of disontinuation?,,,4,Y,date,10,,N,N,,,,,,,,,DSSTDTC,DSSTDTC
2026-06-30,C48250,PHYDECISION,CDASHIG,2-1,,DS,PHYDECISION_EOS,,End of Study,,Physician Decision,DSCAT,DSCAT,C82977,,Disposition Category,,1,Y,text,200,,Y,N,,C74558,DSCAT,,,,DISPOSITION EVENT,C74590,DSCAT,DSCAT
2026-06-30,C48250,PHYDECISION,CDASHIG,2-1,,DS,PHYDECISION_EOS,,End of Study,,Physician Decision,DSSCAT,DSSCAT,C25692,,Disposition Subcategory,,2,Y,text,200,,Y,N,,C170443,DSSCAT,,,,,,DSSCAT,DSSCAT
2026-06-30,C48250,PHYDECISION,CDASHIG,2-1,,DS,PHYDECISION_EOS,,End of Study,,Physician Decision,DSDECOD,DSDECOD,C82977,What was the subject's status at the end of study?,,,3,Y,text,200,,N,N,,C66727,NCOMPLT,,,,PHYSICIAN DECISION,C48250,DSDECOD,DSDECOD
2026-06-30,C48250,PHYDECISION,CDASHIG,2-1,,DS,PHYDECISION_EOS,,End of Study,,Physician Decision,DSSTDAT,DSSTDAT,C82517,What was the date of disontinuation?,,,4,Y,date,10,,N,N,,,,,,,,,DSSTDTC,DSSTDTC
2026-06-30,C48250,PHYDECISION,CDASHIG,2-1,,DS,PHYDECISION_EOT,,End of Treatment,,Physician Decision,DSCAT,DSCAT,C82977,,Disposition Category,,1,Y,text,200,,Y,N,,C74558,DSCAT,,,,DISPOSITION EVENT,C74590,DSCAT,DSCAT
2026-06-30,C48250,PHYDECISION,CDASHIG,2-1,,DS,PHYDECISION_EOT,,End of Treatment,,Physician Decision,DSSCAT,DSSCAT,C25692,,Disposition Subcategory,,2,Y,text,200,,Y,N,,C170443,DSSCAT,,,,,,DSSCAT,DSSCAT
2026-06-30,C48250,PHYDECISION,CDASHIG,2-1,,DS,PHYDECISION_EOT,,End of Treatment,,Physician Decision,DSDECOD,DSDECOD,C82977,What was the subject's status at the end of treatment?,,,3,Y,text,200,,N,N,,C66727,NCOMPLT,,,,PHYSICIAN DECISION,C48250,DSDECOD,DSDECOD
2026-06-30,C48250,PHYDECISION,CDASHIG,2-1,,DS,PHYDECISION_EOT,,End of Treatment,,Physician Decision,DSSTDAT,DSSTDAT,C82517,What was the date of the end of treatment?,,,4,Y,date,10,,N,N,,,,,,,,,DSSTDTC,DSSTDTC
2026-06-30,C35571,PROGDISEASE,CDASHIG,2-1,,DS,PROGDISEASE_CONT,,Study Continuation,,Progressive Disease,DSCAT,DSCAT,C82977,,Disposition Category,,1,Y,text,200,,Y,N,,C74558,DSCAT,,,,DISPOSITION EVENT,C74590,DSCAT,DSCAT
2026-06-30,C35571,PROGDISEASE,CDASHIG,2-1,,DS,PROGDISEASE_CONT,,Study Continuation,,Progressive Disease,DSSCAT,DSSCAT,C25692,,Disposition Subcategory,,2,Y,text,200,,Y,N,,C170443,DSSCAT,,,,,,DSSCAT,DSSCAT
2026-06-30,C35571,PROGDISEASE,CDASHIG,2-1,,DS,PROGDISEASE_CONT,,Study Continuation,,Progressive Disease,DSDECOD,DSDECOD,C82977,What was the subject's status at the <protocol-specified timepoint>,,,3,Y,text,200,,N,N,,C66727,NCOMPLT,,,,PROGRESSIVE DISEASE,C35571,DSDECOD,DSDECOD
2026-06-30,C35571,PROGDISEASE,CDASHIG,2-1,,DS,PROGDISEASE_CONT,,Study Continuation,,Progressive Disease,DSSTDAT,DSSTDAT,C82517,What was the date of disontinuation?,,,4,Y,date,10,,N,N,,,,,,,,,DSSTDTC,DSSTDTC
2026-06-30,C35571,PROGDISEASE,CDASHIG,2-1,,DS,PROGDISEASE_EOS,,End of Study,,Progressive Disease,DSCAT,DSCAT,C82977,,Disposition Category,,1,Y,text,200,,Y,N,,C74558,DSCAT,,,,DISPOSITION EVENT,C74590,DSCAT,DSCAT
2026-06-30,C35571,PROGDISEASE,CDASHIG,2-1,,DS,PROGDISEASE_EOS,,End of Study,,Progressive Disease,DSSCAT,DSSCAT,C25692,,Disposition Subcategory,,2,Y,text,200,,Y,N,,C170443,DSSCAT,,,,,,DSSCAT,DSSCAT
2026-06-30,C35571,PROGDISEASE,CDASHIG,2-1,,DS,PROGDISEASE_EOS,,End of Study,,Progressive Disease,DSDECOD,DSDECOD,C82977,What was the subject's status at the end of study?,,,3,Y,text,200,,N,N,,C66727,NCOMPLT,,,,PROGRESSIVE DISEASE,C35571,DSDECOD,DSDECOD
2026-06-30,C35571,PROGDISEASE,CDASHIG,2-1,,DS,PROGDISEASE_EOS,,End of Study,,Progressive Disease,DSSTDAT,DSSTDAT,C82517,What was the date of disontinuation?,,,4,Y,date,10,,N,N,,,,,,,,,DSSTDTC,DSSTDTC
2026-06-30,C35571,PROGDISEASE,CDASHIG,2-1,,DS,PROGDISEASE_EOT,,End of Treatment,,Progressive Disease,DSCAT,DSCAT,C82977,,Disposition Category,,1,Y,text,200,,Y,N,,C74558,DSCAT,,,,DISPOSITION EVENT,C74590,DSCAT,DSCAT
2026-06-30,C35571,PROGDISEASE,CDASHIG,2-1,,DS,PROGDISEASE_EOT,,End of Treatment,,Progressive Disease,DSSCAT,DSSCAT,C25692,,Disposition Subcategory,,2,Y,text,200,,Y,N,,C170443,DSSCAT,,,,,,DSSCAT,DSSCAT
2026-06-30,C35571,PROGDISEASE,CDASHIG,2-1,,DS,PROGDISEASE_EOT,,End of Treatment,,Progressive Disease,DSDECOD,DSDECOD,C82977,What was the subject's status at the end of treatment?,,,3,Y,text,200,,N,N,,C66727,NCOMPLT,,,,PROGRESSIVE DISEASE,C35571,DSDECOD,DSDECOD
2026-06-30,C35571,PROGDISEASE,CDASHIG,2-1,,DS,PROGDISEASE_EOT,,End of Treatment,,Progressive Disease,DSSTDAT,DSSTDAT,C82517,What was the date of the end of treatment?,,,4,Y,date,10,,N,N,,,,,,,,,DSSTDTC,DSSTDTC
2026-06-30,C25250,PROTCOMP,CDASHIG,2-1,,DS,PROTCOMP_CONT,,Study Continuation,,Protocol Completed,DSCAT,DSCAT,C82977,,Disposition Category,,1,Y,text,200,,Y,N,,C74558,DSCAT,,,,DISPOSITION EVENT,C74590,DSCAT,DSCAT
2026-06-30,C25250,PROTCOMP,CDASHIG,2-1,,DS,PROTCOMP_CONT,,Study Continuation,,Protocol Completed,DSSCAT,DSSCAT,C25692,,Disposition Subcategory,,2,Y,text,200,,Y,N,,C170443,DSSCAT,,,,,,DSSCAT,DSSCAT
2026-06-30,C25250,PROTCOMP,CDASHIG,2-1,,DS,PROTCOMP_CONT,,Study Continuation,,Protocol Completed,DSDECOD,DSDECOD,C82977,What was the subject's status at the <protocol-specified timepoint>,,,3,Y,text,200,,N,N,,C66727,NCOMPLT,,,,COMPLETED,C25250,DSDECOD,DSDECOD
2026-06-30,C25250,PROTCOMP,CDASHIG,2-1,,DS,PROTCOMP_CONT,,Study Continuation,,Protocol Completed,DSSTDAT,DSSTDAT,C82517,What was the date of disontinuation?,,,4,Y,date,10,,N,N,,,,,,,,,DSSTDTC,DSSTDTC
2026-06-30,C25250,PROTCOMP,CDASHIG,2-1,,DS,PROTCOMP_EOS,,End of Study,,Protocol Completed,DSCAT,DSCAT,C82977,,Disposition Category,,1,Y,text,200,,Y,N,,C74558,DSCAT,,,,DISPOSITION EVENT,C74590,DSCAT,DSCAT
2026-06-30,C25250,PROTCOMP,CDASHIG,2-1,,DS,PROTCOMP_EOS,,End of Study,,Protocol Completed,DSSCAT,DSSCAT,C25692,,Disposition Subcategory,,2,Y,text,200,,Y,N,,C170443,DSSCAT,,,,,,DSSCAT,DSSCAT
2026-06-30,C25250,PROTCOMP,CDASHIG,2-1,,DS,PROTCOMP_EOS,,End of Study,,Protocol Completed,DSDECOD,DSDECOD,C82977,What was the subject's status at the end of study?,,,3,Y,text,200,,N,N,,C66727,NCOMPLT,,,,COMPLETED,C25250,DSDECOD,DSDECOD
2026-06-30,C25250,PROTCOMP,CDASHIG,2-1,,DS,PROTCOMP_EOS,,End of Study,,Protocol Completed,DSSTDAT,DSSTDAT,C82517,What was the date of disontinuation?,,,4,Y,date,10,,N,N,,,,,,,,,DSSTDTC,DSSTDTC
2026-06-30,C25250,PROTCOMP,CDASHIG,2-1,,DS,PROTCOMP_EOT,,End of Treatment,,Protocol Completed,DSCAT,DSCAT,C82977,,Disposition Category,,1,Y,text,200,,Y,N,,C74558,DSCAT,,,,DISPOSITION EVENT,C74590,DSCAT,DSCAT
2026-06-30,C25250,PROTCOMP,CDASHIG,2-1,,DS,PROTCOMP_EOT,,End of Treatment,,Protocol Completed,DSSCAT,DSSCAT,C25692,,Disposition Subcategory,,2,Y,text,200,,Y,N,,C170443,DSSCAT,,,,,,DSSCAT,DSSCAT
2026-06-30,C25250,PROTCOMP,CDASHIG,2-1,,DS,PROTCOMP_EOT,,End of Treatment,,Protocol Completed,DSDECOD,DSDECOD,C82977,What was the subject's status at the end of treatment?,,,3,Y,text,200,,N,N,,C66727,NCOMPLT,,,,COMPLETED,C25250,DSDECOD,DSDECOD
2026-06-30,C25250,PROTCOMP,CDASHIG,2-1,,DS,PROTCOMP_EOT,,End of Treatment,,Protocol Completed,DSSTDAT,DSSTDAT,C82517,What was the date of the end of treatment?,,,4,Y,date,10,,N,N,,,,,,,,,DSSTDTC,DSSTDTC
2026-06-30,C49634,PROTDEV,CDASHIG,2-1,,DS,PROTDEV_CONT,,Study Continuation,,Protocol Deviation,DSCAT,DSCAT,C82977,,Disposition Category,,1,Y,text,200,,Y,N,,C74558,DSCAT,,,,DISPOSITION EVENT,C74590,DSCAT,DSCAT
2026-06-30,C49634,PROTDEV,CDASHIG,2-1,,DS,PROTDEV_CONT,,Study Continuation,,Protocol Deviation,DSSCAT,DSSCAT,C25692,,Disposition Subcategory,,2,N,text,200,,Y,N,,C170443,DSSCAT,,,,,,DSSCAT,DSSCAT
2026-06-30,C49634,PROTDEV,CDASHIG,2-1,,DS,PROTDEV_CONT,,Study Continuation,,Protocol Deviation,DSDECOD,DSDECOD,C82977,What was the subject's status at the <protocol-specified timepoint>,,,3,Y,text,200,,N,N,,C66727,NCOMPLT,,,,PROTOCOL DEVIATION,C50996,DSDECOD,DSDECOD
2026-06-30,C49634,PROTDEV,CDASHIG,2-1,,DS,PROTDEV_CONT,,Study Continuation,,Protocol Deviation,DSSTDAT,DSSTDAT,C82517,What was the date of disontinuation?,,,4,Y,date,10,,N,N,,,,,,,,,DSSTDTC,DSSTDTC
2026-06-30,C49634,PROTDEV,CDASHIG,2-1,,DS,PROTDEV_EOS,,End of Study,,Protocol Deviation,DSCAT,DSCAT,C82977,,Disposition Category,,1,Y,text,200,,Y,N,,C74558,DSCAT,,,,DISPOSITION EVENT,C74590,DSCAT,DSCAT
2026-06-30,C49634,PROTDEV,CDASHIG,2-1,,DS,PROTDEV_EOS,,End of Study,,Protocol Deviation,DSSCAT,DSSCAT,C25692,,Disposition Subcategory,,2,N,text,200,,Y,N,,C170443,DSSCAT,,,,,,DSSCAT,DSSCAT
2026-06-30,C49634,PROTDEV,CDASHIG,2-1,,DS,PROTDEV_EOS,,End of Study,,Protocol Deviation,DSDECOD,DSDECOD,C82977,What was the subject's status at the end of study?,,,3,Y,text,200,,N,N,,C66727,NCOMPLT,,,,PROTOCOL DEVIATION,C50996,DSDECOD,DSDECOD
2026-06-30,C49634,PROTDEV,CDASHIG,2-1,,DS,PROTDEV_EOS,,End of Study,,Protocol Deviation,DSSTDAT,DSSTDAT,C82517,What was the date of disontinuation?,,,4,Y,date,10,,N,N,,,,,,,,,DSSTDTC,DSSTDTC
2026-06-30,C49634,PROTDEV,CDASHIG,2-1,,DS,PROTDEV_EOT,,End of Treatment,,Protocol Deviation,DSCAT,DSCAT,C82977,,Disposition Category,,1,Y,text,200,,Y,N,,C74558,DSCAT,,,,DISPOSITION EVENT,C74590,DSCAT,DSCAT
2026-06-30,C49634,PROTDEV,CDASHIG,2-1,,DS,PROTDEV_EOT,,End of Treatment,,Protocol Deviation,DSSCAT,DSSCAT,C25692,,Disposition Subcategory,,2,N,text,200,,Y,N,,C170443,DSSCAT,,,,,,DSSCAT,DSSCAT
2026-06-30,C49634,PROTDEV,CDASHIG,2-1,,DS,PROTDEV_EOT,,End of Treatment,,Protocol Deviation,DSDECOD,DSDECOD,C82977,What was the subject's status at the end of treatment?,,,3,Y,text,200,,N,N,,C66727,NCOMPLT,,,,PROTOCOL DEVIATION,C50996,DSDECOD,DSDECOD
2026-06-30,C49634,PROTDEV,CDASHIG,2-1,,DS,PROTDEV_EOT,,End of Treatment,,Protocol Deviation,DSSTDAT,DSSTDAT,C82517,What was the date of the end of treatment?,,,4,Y,date,10,,N,N,,,,,,,,,DSSTDTC,DSSTDTC
2026-06-30,C114209,RAND,CDASHIG,2-1,,DS,RAND,,Randomization,,Randomized,DSCAT,DSCAT,C82977,,Disposition Category,,1,Y,text,100,,Y,N,,C74558,DSCAT,,,,PROTOCOL MILESTONE,C74588,DSCAT,DSCAT
2026-06-30,C114209,RAND,CDASHIG,2-1,,DS,RAND,,Randomization,,Randomized,DSSCAT,DSSCAT,C25692,,Disposition Subcategory,,2,N,text,100,,Y,N,,,,,,,,,DSSCAT,DSSCAT
2026-06-30,C114209,RAND,CDASHIG,2-1,,DS,RAND,,Randomization,,Randomized,DSDECOD,DSDECOD,C82977,,Disposition Event,,3,Y,text,200,,N,N,,C114118,PROTMLST,,,,RANDOMIZED,C114209,DSDECOD,DSDECOD
2026-06-30,C114209,RAND,CDASHIG,2-1,,DS,RAND,,Randomization,,Randomized,DSSTDAT,DSSTDAT,C82517,What was the date of randomization?,,,4,Y,date,10,,N,N,,,,,,,,,DSSTDTC,DSSTDTC
2026-06-30,C142742,SITETRANSFER,CDASHIG,2-1,,DS,SITETRANSFER,,Site Transfer,,Site Transfer,DSCAT,DSCAT,C82977,,Disposition Category,,1,Y,text,200,,Y,N,,C74558,DSCAT,,,,OTHER EVENT,C150824,DSCAT,DSCAT
2026-06-30,C142742,SITETRANSFER,CDASHIG,2-1,,DS,SITETRANSFER,,Site Transfer,,Site Transfer,DSSCAT,DSSCAT,C25692,,Disposition Subcategory,,2,N,text,100,,Y,N,,,,,,,,,DSSCAT,DSSCAT
2026-06-30,C142742,SITETRANSFER,CDASHIG,2-1,,DS,SITETRANSFER,,Site Transfer,,Site Transfer,DSDECOD,DSDECOD,C82977,,Disposition Event,,3,Y,text,200,,N,N,,C150811,OTHEVENT,,,,SITE TRANSFER,C186208,DSDECOD,DSDECOD
2026-06-30,C142742,SITETRANSFER,CDASHIG,2-1,,DS,SITETRANSFER,,Site Transfer,,Site Transfer,DSSTDAT,DSSTDAT,C82517,What was the date of the site transfer?,,,4,Y,date,10,,N,N,,,,,,,,,DSSTDTC,DSSTDTC
2026-06-30,C191656,SUBJPREG,CDASHIG,2-1,,DS,SUBJPREG_CONT,,Study Continuation,,Subject Pregnancy,DSCAT,DSCAT,C82977,,Disposition Category,,1,Y,text,200,,Y,N,,C74558,DSCAT,,,,DISPOSITION EVENT,C74590,DSCAT,DSCAT
2026-06-30,C191656,SUBJPREG,CDASHIG,2-1,,DS,SUBJPREG_CONT,,Study Continuation,,Subject Pregnancy,DSSCAT,DSSCAT,C25692,,Disposition Subcategory,,2,Y,text,200,,Y,N,,C170443,DSSCAT,,,,,,DSSCAT,DSSCAT
2026-06-30,C191656,SUBJPREG,CDASHIG,2-1,,DS,SUBJPREG_CONT,,Study Continuation,,Subject Pregnancy,DSDECOD,DSDECOD,C82977,What was the subject's status at the <protocol-specified timepoint>,,,3,Y,text,200,,N,N,,C66727,NCOMPLT,,,,PREGNANCY,C191656,DSDECOD,DSDECOD
2026-06-30,C191656,SUBJPREG,CDASHIG,2-1,,DS,SUBJPREG_CONT,,Study Continuation,,Subject Pregnancy,DSSTDAT,DSSTDAT,C82517,What was the date of disontinuation?,,,4,Y,date,10,,N,N,,,,,,,,,DSSTDTC,DSSTDTC
2026-06-30,C191656,SUBJPREG,CDASHIG,2-1,,DS,SUBJPREG_EOS,,End of Study,,Subject Pregnancy,DSCAT,DSCAT,C82977,,Disposition Category,,1,Y,text,200,,Y,N,,C74558,DSCAT,,,,DISPOSITION EVENT,C74590,DSCAT,DSCAT
2026-06-30,C191656,SUBJPREG,CDASHIG,2-1,,DS,SUBJPREG_EOS,,End of Study,,Subject Pregnancy,DSSCAT,DSSCAT,C25692,,Disposition Subcategory,,2,Y,text,200,,Y,N,,C170443,DSSCAT,,,,,,DSSCAT,DSSCAT
2026-06-30,C191656,SUBJPREG,CDASHIG,2-1,,DS,SUBJPREG_EOS,,End of Study,,Subject Pregnancy,DSDECOD,DSDECOD,C82977,What was the subject's status at the end of study?,,,3,Y,text,200,,N,N,,C66727,NCOMPLT,,,,PREGNANCY,C191656,DSDECOD,DSDECOD
2026-06-30,C191656,SUBJPREG,CDASHIG,2-1,,DS,SUBJPREG_EOS,,End of Study,,Subject Pregnancy,DSSTDAT,DSSTDAT,C82517,What was the date of disontinuation?,,,4,Y,date,10,,N,N,,,,,,,,,DSSTDTC,DSSTDTC
2026-06-30,C191656,SUBJPREG,CDASHIG,2-1,,DS,SUBJPREG_EOT,,End of Treatment,,Subject Pregnancy,DSCAT,DSCAT,C82977,,Disposition Category,,1,Y,text,200,,Y,N,,C74558,DSCAT,,,,DISPOSITION EVENT,C74590,DSCAT,DSCAT
2026-06-30,C191656,SUBJPREG,CDASHIG,2-1,,DS,SUBJPREG_EOT,,End of Treatment,,Subject Pregnancy,DSSCAT,DSSCAT,C25692,,Disposition Subcategory,,2,Y,text,200,,Y,N,,C170443,DSSCAT,,,,,,DSSCAT,DSSCAT
2026-06-30,C191656,SUBJPREG,CDASHIG,2-1,,DS,SUBJPREG_EOT,,End of Treatment,,Subject Pregnancy,DSDECOD,DSDECOD,C82977,What was the subject's status at the end of treatment?,,,3,Y,text,200,,N,N,,C66727,NCOMPLT,,,,PREGNANCY,C191656,DSDECOD,DSDECOD
2026-06-30,C191656,SUBJPREG,CDASHIG,2-1,,DS,SUBJPREG_EOT,,End of Treatment,,Subject Pregnancy,DSSTDAT,DSSTDAT,C82517,What was the date of the end of treatment?,,,4,Y,date,10,,N,N,,,,,,,,,DSSTDTC,DSSTDTC
2026-06-30,C49634,SUBJWITHDRAW,CDASHIG,2-1,,DS,SUBJWITHDRAW_CONT,,Study Continuation,,Withdrawal By Subject,DSCAT,DSCAT,C82977,,Disposition Category,,1,Y,text,200,,Y,N,,C74558,DSCAT,,,,DISPOSITION EVENT,C74590,DSCAT,DSCAT
2026-06-30,C49634,SUBJWITHDRAW,CDASHIG,2-1,,DS,SUBJWITHDRAW_CONT,,Study Continuation,,Withdrawal By Subject,DSSCAT,DSSCAT,C25692,,Disposition Subcategory,,2,Y,text,200,,Y,N,,C170443,DSSCAT,,,,,,DSSCAT,DSSCAT
2026-06-30,C49634,SUBJWITHDRAW,CDASHIG,2-1,,DS,SUBJWITHDRAW_CONT,,Study Continuation,,Withdrawal By Subject,DSDECOD,DSDECOD,C82977,What was the subject's status at the <protocol-specified timepoint>,,,3,Y,text,200,,N,N,,C66727,NCOMPLT,,,,WITHDRAWAL BY SUBJECT,C49634,DSDECOD,DSDECOD
2026-06-30,C49634,SUBJWITHDRAW,CDASHIG,2-1,,DS,SUBJWITHDRAW_CONT,,Study Continuation,,Withdrawal By Subject,DSSTDAT,DSSTDAT,C82517,What was the date of disontinuation?,,,4,Y,date,10,,N,N,,,,,,,,,DSSTDTC,DSSTDTC
2026-06-30,C49634,SUBJWITHDRAW,CDASHIG,2-1,,DS,SUBJWITHDRAW_EOS,,End of Study,,Withdrawal By Subject,DSCAT,DSCAT,C82977,,Disposition Category,,1,Y,text,200,,Y,N,,C74558,DSCAT,,,,DISPOSITION EVENT,C74590,DSCAT,DSCAT
2026-06-30,C49634,SUBJWITHDRAW,CDASHIG,2-1,,DS,SUBJWITHDRAW_EOS,,End of Study,,Withdrawal By Subject,DSSCAT,DSSCAT,C25692,,Disposition Subcategory,,2,Y,text,200,,Y,N,,C170443,DSSCAT,,,,,,DSSCAT,DSSCAT
2026-06-30,C49634,SUBJWITHDRAW,CDASHIG,2-1,,DS,SUBJWITHDRAW_EOS,,End of Study,,Withdrawal By Subject,DSDECOD,DSDECOD,C82977,What was the subject's status at the end of study?,,,3,Y,text,200,,N,N,,C66727,NCOMPLT,,,,WITHDRAWAL BY SUBJECT,C49634,DSDECOD,DSDECOD
2026-06-30,C49634,SUBJWITHDRAW,CDASHIG,2-1,,DS,SUBJWITHDRAW_EOS,,End of Study,,Withdrawal By Subject,DSSTDAT,DSSTDAT,C82517,What was the date of disontinuation?,,,4,Y,date,10,,N,N,,,,,,,,,DSSTDTC,DSSTDTC
2026-06-30,C49634,SUBJWITHDRAW,CDASHIG,2-1,,DS,SUBJWITHDRAW_EOT,,End of Treatment,,Withdrawal By Subject,DSCAT,DSCAT,C82977,,Disposition Category,,1,Y,text,200,,Y,N,,C74558,DSCAT,,,,DISPOSITION EVENT,C74590,DSCAT,DSCAT
2026-06-30,C49634,SUBJWITHDRAW,CDASHIG,2-1,,DS,SUBJWITHDRAW_EOT,,End of Treatment,,Withdrawal By Subject,DSSCAT,DSSCAT,C25692,,Disposition Subcategory,,2,Y,text,200,,Y,N,,C170443,DSSCAT,,,,,,DSSCAT,DSSCAT
2026-06-30,C49634,SUBJWITHDRAW,CDASHIG,2-1,,DS,SUBJWITHDRAW_EOT,,End of Treatment,,Withdrawal By Subject,DSDECOD,DSDECOD,C82977,What was the subject's status at the end of treatment?,,,3,Y,text,200,,N,N,,C66727,NCOMPLT,,,,WITHDRAWAL BY SUBJECT,C49634,DSDECOD,DSDECOD
2026-06-30,C49634,SUBJWITHDRAW,CDASHIG,2-1,,DS,SUBJWITHDRAW_EOT,,End of Treatment,,Withdrawal By Subject,DSSTDAT,DSSTDAT,C82517,What was the date of the end of treatment?,,,4,Y,date,10,,N,N,,,,,,,,,DSSTDTC,DSSTDTC
2026-06-30,C142742,UNBLIND,CDASHIG,2-1,,DS,UNBLIND,,Unblinding,,Treatment Unblinded,DSCAT,DSCAT,C82977,,Disposition Category,,1,Y,text,200,,Y,N,,C74558,DSCAT,,,,OTHER EVENT,C150824,DSCAT,DSCAT
2026-06-30,C142742,UNBLIND,CDASHIG,2-1,,DS,UNBLIND,,Unblinding,,Treatment Unblinded,DSSCAT,DSSCAT,C25692,,Disposition Subcategory,,2,N,text,100,,Y,N,,,,,,,,,DSSCAT,DSSCAT
2026-06-30,C142742,UNBLIND,CDASHIG,2-1,,DS,UNBLIND,,Unblinding,,Treatment Unblinded,DSDECOD,DSDECOD,C82977,,Disposition Event,,3,Y,text,200,,N,N,,C150811,OTHEVENT,,,,TREATMENT UNBLINDED,C142742,DSDECOD,DSDECOD
2026-06-30,C142742,UNBLIND,CDASHIG,2-1,,DS,UNBLIND,,Unblinding,,Treatment Unblinded,DSSTDAT,DSSTDAT,C82517,What was the date of unblinding?,,,4,Y,date,10,,N,N,,,,,,,,,DSSTDTC,DSSTDTC
2026-06-30,C87885,,CDASHIG,2-1,,EC,EC,,,,Exposure Yes No Indicator,ECYN,ECYN,C87885,Was any study treatment administered?,,,1,Y,text,1,,N,N,,C66742,NY,N;Y,No;Yes,Single,,,,[NOT SUBMITTED]
2026-06-30,C87885,,CDASHIG,2-1,,EC,EC,,,,Exposure Yes No Indicator,ECDAT,ECDAT,C82515,,Collection Date,,2,N,date,10,,N,N,,,,,,,,,ECDTC,ECDTC
2026-06-30,C117466,EXPOSCOLL,CDASHIG,2-1,,EC,EXPOSCOLL_DENORMALIZED,Denormalized,,,Exposure as Collected Name of Treatment (Denormalized),ECTRT,ECTRT,C117473,,Study Treatment Name,,1,Y,text,200,,N,N,,,,,,,,,ECTRT,ECTRT
2026-06-30,C117466,EXPOSCOLL,CDASHIG,2-1,,EC,EXPOSCOLL_DENORMALIZED,Denormalized,,,Exposure as Collected Name of Treatment (Denormalized),ECREFID,ECREFID,C117469,,Study Treatment Label Identifier,,2,N,text,200,,N,N,,,,,,,,,ECREFID,ECREFID
2026-06-30,C117466,EXPOSCOLL,CDASHIG,2-1,,EC,EXPOSCOLL_DENORMALIZED,Denormalized,,,Exposure as Collected Name of Treatment (Denormalized),ECLOT,ECLOT,,,Lot Number,,3,N,text,100,,N,N,,,,,,,,,ECLOT,ECLOT
2026-06-30,C117466,EXPOSCOLL,CDASHIG,2-1,,EC,EXPOSCOLL_DENORMALIZED,Denormalized,,,Exposure as Collected Name of Treatment (Denormalized),ECFAST,ECFAST,,,Fasting,,4,N,text,1,,N,N,,C66742,NY,,,Single,,,ECFAST,ECFAST
2026-06-30,C117466,EXPOSCOLL,CDASHIG,2-1,,EC,EXPOSCOLL_DENORMALIZED,Denormalized,,,Exposure as Collected Name of Treatment (Denormalized),ECSTDAT,ECSTDAT,C117496,,Start Date,,5,Y,date,10,,N,N,,,,,,,,,ECSTDTC,ECSTDTC
2026-06-30,C117466,EXPOSCOLL,CDASHIG,2-1,,EC,EXPOSCOLL_DENORMALIZED,Denormalized,,,Exposure as Collected Name of Treatment (Denormalized),ECSTTIM,ECSTTIM,C117496,,Start Time,,6,N,time,5,,N,N,,,,,,,,,ECSTDTC,ECSTDTC
2026-06-30,C117466,EXPOSCOLL,CDASHIG,2-1,,EC,EXPOSCOLL_DENORMALIZED,Denormalized,,,Exposure as Collected Name of Treatment (Denormalized),ECENDAT,ECENDAT,C117497,,End Date,,7,Y,date,10,,N,N,,,,,,,,,ECENDTC,ECENDTC
2026-06-30,C117466,EXPOSCOLL,CDASHIG,2-1,,EC,EXPOSCOLL_DENORMALIZED,Denormalized,,,Exposure as Collected Name of Treatment (Denormalized),ECENTIM,ECENTIM,C117497,,End Time,,8,N,time,5,,N,N,,,,,,,,,ECENDTC,ECENDTC
2026-06-30,C117466,EXPOSCOLL,CDASHIG,2-1,,EC,EXPOSCOLL_DENORMALIZED,Denormalized,,,Exposure as Collected Name of Treatment (Denormalized),ECDSTXT,ECDSTXT,,,Dose,,9,Y,text,100,,N,N,,,,,,,,,ECDOSE;ECDOSTXT,ECDOSE;ECDOSTXT
2026-06-30,C117466,EXPOSCOLL,CDASHIG,2-1,,EC,EXPOSCOLL_DENORMALIZED,Denormalized,,,Exposure as Collected Name of Treatment (Denormalized),ECDOSU,ECDOSU,C117481,,Unit,,10,Y,text,200,,N,N,,C71620,UNIT,,,,,,ECDOSU,ECDOSU
2026-06-30,C117466,EXPOSCOLL,CDASHIG,2-1,,EC,EXPOSCOLL_DENORMALIZED,Denormalized,,,Exposure as Collected Name of Treatment (Denormalized),ECDOSFRQ,ECDOSFRQ,C117483,,Frequency,,11,N,text,200,,N,N,,C71113,FREQ,,,,,,ECDOSFRQ,ECDOSFRQ
2026-06-30,C117466,EXPOSCOLL,CDASHIG,2-1,,EC,EXPOSCOLL_DENORMALIZED,Denormalized,,,Exposure as Collected Name of Treatment (Denormalized),ECROUTE,ECROUTE,C117486,,Route,,12,N,text,200,,N,N,,C66729,ROUTE,,,,,,ECROUTE,ECROUTE
2026-06-30,C117466,EXPOSCOLL,CDASHIG,2-1,,EC,EXPOSCOLL_DENORMALIZED,Denormalized,,,Exposure as Collected Name of Treatment (Denormalized),ECDOSADJ,ECDOSADJ,,,Dose Adjusted,,13,N,text,1,,N,N,,C66742,NY,,,Single,,,ECDOSADJ,ECDOSADJ
2026-06-30,C117466,EXPOSCOLL,CDASHIG,2-1,,EC,EXPOSCOLL_DENORMALIZED,Denormalized,,,Exposure as Collected Name of Treatment (Denormalized),ECADJ,ECADJ,,,Reason Dose Adjusted,,14,N,text,200,,N,N,,,,,,,,,ECADJ,ECADJ
2026-06-30,C117466,EXPOSCOLL_XANOMELINEPLACEBO,CDASHIG,2-1,,EC,EXPOSCOLL_XANOMELINEPLACEBO25_DENORMALIZED,Denormalized,Patch 25cm2,360,Exposure as Collected Xanomeline (LY246708) or Placebo (Denormalized),ECTRT,ECTRT,C117473,,Study Drug,,1,Y,text,200,,Y,N,,,,,,,Xanomeline (LY246708) or Placebo,,ECTRT,ECTRT = Xanomeline (LY246708) or Placebo
2026-06-30,C117466,EXPOSCOLL_XANOMELINEPLACEBO,CDASHIG,2-1,,EC,EXPOSCOLL_XANOMELINEPLACEBO25_DENORMALIZED,Denormalized,Patch 25cm2,360,Exposure as Collected Xanomeline (LY246708) or Placebo (Denormalized),ECDOSE,ECDOSE,C117479,,Number of 25cm2 patches prescribed/day,,2,Y,integer,2,,N,N,,,,,,,,,ECDOSE,ECDOSE
2026-06-30,C117466,EXPOSCOLL_XANOMELINEPLACEBO,CDASHIG,2-1,,EC,EXPOSCOLL_XANOMELINEPLACEBO25_DENORMALIZED,Denormalized,Patch 25cm2,360,Exposure as Collected Xanomeline (LY246708) or Placebo (Denormalized),ECDOSU,ECDOSU,C117481,,Unit,,3,Y,text,200,,N,N,,C71620,UNIT,,,,PATCH,C48524,ECDOSU,ECDOSU
2026-06-30,C117466,EXPOSCOLL_XANOMELINEPLACEBO,CDASHIG,2-1,,EC,EXPOSCOLL_XANOMELINEPLACEBO25_DENORMALIZED,Denormalized,Patch 25cm2,360,Exposure as Collected Xanomeline (LY246708) or Placebo (Denormalized),ECDOSFRM,ECDOSFRM,C117482,,Dose Form,,4,N,text,200,,Y,N,,C66726,FRM,,,,PATCH,C42968,ECDOSFRM,ECDOSFRM = PATCH
2026-06-30,C117466,EXPOSCOLL_XANOMELINEPLACEBO,CDASHIG,2-1,,EC,EXPOSCOLL_XANOMELINEPLACEBO25_DENORMALIZED,Denormalized,Patch 25cm2,360,Exposure as Collected Xanomeline (LY246708) or Placebo (Denormalized),ECDOSFRQ,ECDOSFRQ,C117483,,Frequency,,5,N,text,200,,Y,N,,C71113,FREQ,,,,QD,C25473,ECDOSFRQ,ECDOSFRQ = QD
2026-06-30,C117466,EXPOSCOLL_XANOMELINEPLACEBO,CDASHIG,2-1,,EC,EXPOSCOLL_XANOMELINEPLACEBO25_DENORMALIZED,Denormalized,Patch 25cm2,360,Exposure as Collected Xanomeline (LY246708) or Placebo (Denormalized),ECROUTE,ECROUTE,C117486,,Route,,6,N,text,200,,Y,N,,C66729,ROUTE,,,,TRANSDERMAL,C38305,ECROUTE,ECROUTE = TRANSDERMAL
2026-06-30,C117466,EXPOSCOLL_XANOMELINEPLACEBO,CDASHIG,2-1,,EC,EXPOSCOLL_XANOMELINEPLACEBO25_DENORMALIZED,Denormalized,Patch 25cm2,360,Exposure as Collected Xanomeline (LY246708) or Placebo (Denormalized),ECPSTRG,ECPSTRG,,,Dose Strength,,7,N,text,100,,Y,N,,,,,,,27,,ECPSTRG,ECPSTRG
2026-06-30,C117466,EXPOSCOLL_XANOMELINEPLACEBO,CDASHIG,2-1,,EC,EXPOSCOLL_XANOMELINEPLACEBO25_DENORMALIZED,Denormalized,Patch 25cm2,360,Exposure as Collected Xanomeline (LY246708) or Placebo (Denormalized),ECPSTRGU,ECPSTRGU,,,Dose Strength Unit,,8,N,text,100,,Y,N,,,,,,,mg,C28253,ECPSTRGU,ECPSTRGU
2026-06-30,C117466,EXPOSCOLL_XANOMELINEPLACEBO,CDASHIG,2-1,,EC,EXPOSCOLL_XANOMELINEPLACEBO25_DENORMALIZED,Denormalized,Patch 25cm2,360,Exposure as Collected Xanomeline (LY246708) or Placebo (Denormalized),ECSTDAT,ECSTDAT,C117496,,Start Date,,9,Y,date,10,,N,N,,,,,,,,,ECSTDTC,ECSTDTC
2026-06-30,C117466,EXPOSCOLL_XANOMELINEPLACEBO,CDASHIG,2-1,,EC,EXPOSCOLL_XANOMELINEPLACEBO25_DENORMALIZED,Denormalized,Patch 25cm2,360,Exposure as Collected Xanomeline (LY246708) or Placebo (Denormalized),ECENDAT,ECENDAT,C117497,,End Date,,10,Y,date,10,,N,N,,,,,,,,,ECENDTC,ECENDTC
2026-06-30,C117466,EXPOSCOLL_XANOMELINEPLACEBO,CDASHIG,2-1,,EC,EXPOSCOLL_XANOMELINEPLACEBO50_DENORMALIZED,Denormalized,Patch 50cm2,360,Exposure as Collected Xanomeline (LY246708) or Placebo (Denormalized),ECTRT,ECTRT,C117473,,Study Drug,,1,Y,text,200,,Y,N,,,,,,,Xanomeline (LY246708) or Placebo,,ECTRT,ECTRT = Xanomeline (LY246708) or Placebo
2026-06-30,C117466,EXPOSCOLL_XANOMELINEPLACEBO,CDASHIG,2-1,,EC,EXPOSCOLL_XANOMELINEPLACEBO50_DENORMALIZED,Denormalized,Patch 50cm2,360,Exposure as Collected Xanomeline (LY246708) or Placebo (Denormalized),ECDOSE,ECDOSE,C117479,,Number of 50cm2 patches prescribed/day,,2,Y,integer,2,,N,N,,,,,,,,,ECDOSE,ECDOSE
2026-06-30,C117466,EXPOSCOLL_XANOMELINEPLACEBO,CDASHIG,2-1,,EC,EXPOSCOLL_XANOMELINEPLACEBO50_DENORMALIZED,Denormalized,Patch 50cm2,360,Exposure as Collected Xanomeline (LY246708) or Placebo (Denormalized),ECDOSU,ECDOSU,C117481,,Unit,,3,Y,text,200,,N,N,,C71620,UNIT,,,,PATCH,C48524,ECDOSU,ECDOSU
2026-06-30,C117466,EXPOSCOLL_XANOMELINEPLACEBO,CDASHIG,2-1,,EC,EXPOSCOLL_XANOMELINEPLACEBO50_DENORMALIZED,Denormalized,Patch 50cm2,360,Exposure as Collected Xanomeline (LY246708) or Placebo (Denormalized),ECDOSFRM,ECDOSFRM,C117482,,Dose Form,,4,N,text,200,,Y,N,,C66726,FRM,,,,PATCH,C42968,ECDOSFRM,ECDOSFRM = PATCH
2026-06-30,C117466,EXPOSCOLL_XANOMELINEPLACEBO,CDASHIG,2-1,,EC,EXPOSCOLL_XANOMELINEPLACEBO50_DENORMALIZED,Denormalized,Patch 50cm2,360,Exposure as Collected Xanomeline (LY246708) or Placebo (Denormalized),ECDOSFRQ,ECDOSFRQ,C117483,,Frequency,,5,N,text,200,,Y,N,,C71113,FREQ,,,,QD,C25473,ECDOSFRQ,ECDOSFRQ = QD
2026-06-30,C117466,EXPOSCOLL_XANOMELINEPLACEBO,CDASHIG,2-1,,EC,EXPOSCOLL_XANOMELINEPLACEBO50_DENORMALIZED,Denormalized,Patch 50cm2,360,Exposure as Collected Xanomeline (LY246708) or Placebo (Denormalized),ECROUTE,ECROUTE,C117486,,Route,,6,N,text,200,,Y,N,,C66729,ROUTE,,,,TRANSDERMAL,C38305,ECROUTE,ECROUTE = TRANSDERMAL
2026-06-30,C117466,EXPOSCOLL_XANOMELINEPLACEBO,CDASHIG,2-1,,EC,EXPOSCOLL_XANOMELINEPLACEBO50_DENORMALIZED,Denormalized,Patch 50cm2,360,Exposure as Collected Xanomeline (LY246708) or Placebo (Denormalized),ECPSTRG,ECPSTRG,,,Dose Strength,,7,N,text,100,,Y,N,,,,,,,54,,ECPSTRG,ECPSTRG
2026-06-30,C117466,EXPOSCOLL_XANOMELINEPLACEBO,CDASHIG,2-1,,EC,EXPOSCOLL_XANOMELINEPLACEBO50_DENORMALIZED,Denormalized,Patch 50cm2,360,Exposure as Collected Xanomeline (LY246708) or Placebo (Denormalized),ECPSTRGU,ECPSTRGU,,,Dose Strength Unit,,8,N,text,100,,Y,N,,,,,,,mg,C28253,ECPSTRGU,ECPSTRGU
2026-06-30,C117466,EXPOSCOLL_XANOMELINEPLACEBO,CDASHIG,2-1,,EC,EXPOSCOLL_XANOMELINEPLACEBO50_DENORMALIZED,Denormalized,Patch 50cm2,360,Exposure as Collected Xanomeline (LY246708) or Placebo (Denormalized),ECSTDAT,ECSTDAT,C117496,,Start Date,,9,Y,date,10,,N,N,,,,,,,,,ECSTDTC,ECSTDTC
2026-06-30,C117466,EXPOSCOLL_XANOMELINEPLACEBO,CDASHIG,2-1,,EC,EXPOSCOLL_XANOMELINEPLACEBO50_DENORMALIZED,Denormalized,Patch 50cm2,360,Exposure as Collected Xanomeline (LY246708) or Placebo (Denormalized),ECENDAT,ECENDAT,C117497,,End Date,,10,Y,date,10,,N,N,,,,,,,,,ECENDTC,ECENDTC
2026-06-30,C111131,AVCOND,CDASHIG,2-1,,EG,AVCOND_DENORMALIZED,Denormalized,LOCAL READING,,Atrioventricular Conduction ECG Assessment (Denormalized),EGDAT,EGDAT,C82515,,Date of Assessment,,1,N,date,10,,N,N,,,,,,,,,EGDTC,EGDTC
2026-06-30,C111131,AVCOND,CDASHIG,2-1,,EG,AVCOND_DENORMALIZED,Denormalized,LOCAL READING,,Atrioventricular Conduction ECG Assessment (Denormalized),EGMETHOD,EGMETHOD,C82535,,Method,,2,Y,text,50,,N,N,,C71151,EGMETHOD,,,,12 LEAD STANDARD,C71102,EGMETHOD,EGMETHOD = 12 LEAD STANDARD
2026-06-30,C111131,AVCOND,CDASHIG,2-1,,EG,AVCOND_DENORMALIZED,Denormalized,LOCAL READING,,Atrioventricular Conduction ECG Assessment (Denormalized),EGPOS,EGPOS,C62164,,Position,,3,N,text,50,,N,N,,C71148,POSITION,SEMI-FOWLERS;SEMI-RECUMBENT;SITTING;STANDING;SUPINE,Semi-Fowlers;Semi-Recumbent;Sitting;Standing;Supine,Single,,,EGPOS,EGPOS
2026-06-30,C111131,AVCOND,CDASHIG,2-1,,EG,AVCOND_DENORMALIZED,Denormalized,LOCAL READING,,Atrioventricular Conduction ECG Assessment (Denormalized),AVCOND_EGORRES,EGORRES,C70856,,Result,,4,Y,text,200,,N,N,,,,,,,,,EGORRES;EGTEST;EGTESTCD,EGORRES when EGTESTCD = AVCOND
2026-06-30,C111131,AVCOND,CDASHIG,2-1,,EG,AVCOND_NORMALIZED,Normalized,LOCAL READING,,Atrioventricular Conduction ECG Assessment (Normalized),EGDAT,EGDAT,C82515,,Date of Assessment,,1,N,date,10,,N,N,,,,,,,,,EGDTC,EGDTC
2026-06-30,C111131,AVCOND,CDASHIG,2-1,,EG,AVCOND_NORMALIZED,Normalized,LOCAL READING,,Atrioventricular Conduction ECG Assessment (Normalized),EGMETHOD,EGMETHOD,C82535,,Method,,2,Y,text,50,,N,N,,C71151,EGMETHOD,,,,12 LEAD STANDARD,C71102,EGMETHOD,EGMETHOD = 12 LEAD STANDARD
2026-06-30,C111131,AVCOND,CDASHIG,2-1,,EG,AVCOND_NORMALIZED,Normalized,LOCAL READING,,Atrioventricular Conduction ECG Assessment (Normalized),EGPOS,EGPOS,C62164,,Position,,3,N,text,50,,N,N,,C71148,POSITION,SEMI-FOWLERS;SEMI-RECUMBENT;SITTING;STANDING;SUPINE,Semi-Fowlers;Semi-Recumbent;Sitting;Standing;Supine,Single,,,EGPOS,EGPOS
2026-06-30,C111131,AVCOND,CDASHIG,2-1,,EG,AVCOND_NORMALIZED,Normalized,LOCAL READING,,Atrioventricular Conduction ECG Assessment (Normalized),EGTPT,EGTPT,,,Timepoint,,4,N,text,50,,N,N,,,,,,,,,,
2026-06-30,C111131,AVCOND,CDASHIG,2-1,,EG,AVCOND_NORMALIZED,Normalized,LOCAL READING,,Atrioventricular Conduction ECG Assessment (Normalized),EGTEST,EGTEST,,,Test,,5,Y,text,40,,N,N,,C71152,EGTEST,,,,Atrioventricular Conduction,C111131,EGTEST;EGTESTCD,EGTEST = Atrioventricular Conduction
2026-06-30,C111131,AVCOND,CDASHIG,2-1,,EG,AVCOND_NORMALIZED,Normalized,LOCAL READING,,Atrioventricular Conduction ECG Assessment (Normalized),EGORRES,EGORRES,C70856,,Result,,6,Y,text,200,,N,N,,,,,,,,,EGORRES;EGTEST;EGTESTCD,EGORRES when EGTESTCD = AVCOND
2026-06-30,C111132,AXISVOLT,CDASHIG,2-1,,EG,AXISVOLT_DENORMALIZED,Denormalized,LOCAL READING,,Axis and Voltage ECG Assessment (Denormalized),EGDAT,EGDAT,C82515,,Date of Assessment,,1,N,date,10,,N,N,,,,,,,,,EGDTC,EGDTC
2026-06-30,C111132,AXISVOLT,CDASHIG,2-1,,EG,AXISVOLT_DENORMALIZED,Denormalized,LOCAL READING,,Axis and Voltage ECG Assessment (Denormalized),EGMETHOD,EGMETHOD,C82535,,Method,,2,Y,text,50,,N,N,,C71151,EGMETHOD,,,,12 LEAD STANDARD,C71102,EGMETHOD,EGMETHOD = 12 LEAD STANDARD
2026-06-30,C111132,AXISVOLT,CDASHIG,2-1,,EG,AXISVOLT_DENORMALIZED,Denormalized,LOCAL READING,,Axis and Voltage ECG Assessment (Denormalized),EGPOS,EGPOS,C62164,,Position,,3,N,text,50,,N,N,,C71148,POSITION,SEMI-FOWLERS;SEMI-RECUMBENT;SITTING;STANDING;SUPINE,Semi-Fowlers;Semi-Recumbent;Sitting;Standing;Supine,Single,,,EGPOS,EGPOS
2026-06-30,C111132,AXISVOLT,CDASHIG,2-1,,EG,AXISVOLT_DENORMALIZED,Denormalized,LOCAL READING,,Axis and Voltage ECG Assessment (Denormalized),AXISVOLT_EGORRES,EGORRES,C70856,,Result,,4,Y,text,200,,N,N,,,,,,,,,EGORRES;EGTEST;EGTESTCD,EGORRES when EGTESTCD = AXISVOLT
2026-06-30,C111132,AXISVOLT,CDASHIG,2-1,,EG,AXISVOLT_NORMALIZED,Normalized,LOCAL READING,,Axis and Voltage ECG Assessment (Normalized),EGDAT,EGDAT,C82515,,Date of Assessment,,1,N,date,10,,N,N,,,,,,,,,EGDTC,EGDTC
2026-06-30,C111132,AXISVOLT,CDASHIG,2-1,,EG,AXISVOLT_NORMALIZED,Normalized,LOCAL READING,,Axis and Voltage ECG Assessment (Normalized),EGMETHOD,EGMETHOD,C82535,,Method,,2,Y,text,50,,N,N,,C71151,EGMETHOD,,,,12 LEAD STANDARD,C71102,EGMETHOD,EGMETHOD = 12 LEAD STANDARD
2026-06-30,C111132,AXISVOLT,CDASHIG,2-1,,EG,AXISVOLT_NORMALIZED,Normalized,LOCAL READING,,Axis and Voltage ECG Assessment (Normalized),EGPOS,EGPOS,C62164,,Position,,3,N,text,50,,N,N,,C71148,POSITION,SEMI-FOWLERS;SEMI-RECUMBENT;SITTING;STANDING;SUPINE,Semi-Fowlers;Semi-Recumbent;Sitting;Standing;Supine,Single,,,EGPOS,EGPOS
2026-06-30,C111132,AXISVOLT,CDASHIG,2-1,,EG,AXISVOLT_NORMALIZED,Normalized,LOCAL READING,,Axis and Voltage ECG Assessment (Normalized),EGTPT,EGTPT,,,Timepoint,,4,N,text,50,,N,N,,,,,,,,,,
2026-06-30,C111132,AXISVOLT,CDASHIG,2-1,,EG,AXISVOLT_NORMALIZED,Normalized,LOCAL READING,,Axis and Voltage ECG Assessment (Normalized),EGTEST,EGTEST,,,Test,,5,Y,text,40,,N,N,,C71152,EGTEST,,,,Axis and Voltage,C111132,EGTEST;EGTESTCD,EGTEST = Axis and Voltage
2026-06-30,C111132,AXISVOLT,CDASHIG,2-1,,EG,AXISVOLT_NORMALIZED,Normalized,LOCAL READING,,Axis and Voltage ECG Assessment (Normalized),EGORRES,EGORRES,C70856,,Result,,6,Y,text,200,,N,N,,,,,,,,,EGORRES;EGTEST;EGTESTCD,EGORRES when EGTESTCD = AXISVOLT
2026-06-30,C111155,CHYPTENL,CDASHIG,2-1,,EG,CHYPTENL_DENORMALIZED,Denormalized,LOCAL READING,,Chamber Hypertrophy or Enlargement ECG Assessment (Denormalized),EGDAT,EGDAT,C82515,,Date of Assessment,,1,N,date,10,,N,N,,,,,,,,,EGDTC,EGDTC
2026-06-30,C111155,CHYPTENL,CDASHIG,2-1,,EG,CHYPTENL_DENORMALIZED,Denormalized,LOCAL READING,,Chamber Hypertrophy or Enlargement ECG Assessment (Denormalized),EGMETHOD,EGMETHOD,C82535,,Method,,2,Y,text,50,,N,N,,C71151,EGMETHOD,,,,12 LEAD STANDARD,C71102,EGMETHOD,EGMETHOD = 12 LEAD STANDARD
2026-06-30,C111155,CHYPTENL,CDASHIG,2-1,,EG,CHYPTENL_DENORMALIZED,Denormalized,LOCAL READING,,Chamber Hypertrophy or Enlargement ECG Assessment (Denormalized),EGPOS,EGPOS,C62164,,Position,,3,N,text,50,,N,N,,C71148,POSITION,SEMI-FOWLERS;SEMI-RECUMBENT;SITTING;STANDING;SUPINE,Semi-Fowlers;Semi-Recumbent;Sitting;Standing;Supine,Single,,,EGPOS,EGPOS
2026-06-30,C111155,CHYPTENL,CDASHIG,2-1,,EG,CHYPTENL_DENORMALIZED,Denormalized,LOCAL READING,,Chamber Hypertrophy or Enlargement ECG Assessment (Denormalized),CHYPTENL_EGORRES,EGORRES,C70856,,Result,,4,Y,text,200,,N,N,,,,,,,,,EGORRES;EGTEST;EGTESTCD,EGORRES when EGTESTCD = CHYPTENL
2026-06-30,C111155,CHYPTENL,CDASHIG,2-1,,EG,CHYPTENL_NORMALIZED,Normalized,LOCAL READING,,Chamber Hypertrophy or Enlargement ECG Assessment (Normalized),EGDAT,EGDAT,C82515,,Date of Assessment,,1,N,date,10,,N,N,,,,,,,,,EGDTC,EGDTC
2026-06-30,C111155,CHYPTENL,CDASHIG,2-1,,EG,CHYPTENL_NORMALIZED,Normalized,LOCAL READING,,Chamber Hypertrophy or Enlargement ECG Assessment (Normalized),EGMETHOD,EGMETHOD,C82535,,Method,,2,Y,text,50,,N,N,,C71151,EGMETHOD,,,,12 LEAD STANDARD,C71102,EGMETHOD,EGMETHOD = 12 LEAD STANDARD
2026-06-30,C111155,CHYPTENL,CDASHIG,2-1,,EG,CHYPTENL_NORMALIZED,Normalized,LOCAL READING,,Chamber Hypertrophy or Enlargement ECG Assessment (Normalized),EGPOS,EGPOS,C62164,,Position,,3,N,text,50,,N,N,,C71148,POSITION,SEMI-FOWLERS;SEMI-RECUMBENT;SITTING;STANDING;SUPINE,Semi-Fowlers;Semi-Recumbent;Sitting;Standing;Supine,Single,,,EGPOS,EGPOS
2026-06-30,C111155,CHYPTENL,CDASHIG,2-1,,EG,CHYPTENL_NORMALIZED,Normalized,LOCAL READING,,Chamber Hypertrophy or Enlargement ECG Assessment (Normalized),EGTPT,EGTPT,,,Timepoint,,4,N,text,50,,N,N,,,,,,,,,,
2026-06-30,C111155,CHYPTENL,CDASHIG,2-1,,EG,CHYPTENL_NORMALIZED,Normalized,LOCAL READING,,Chamber Hypertrophy or Enlargement ECG Assessment (Normalized),EGTEST,EGTEST,,,Test,,5,Y,text,40,,N,N,,C71152,EGTEST,,,,Chamber Hypertrophy or Enlargement,C111155,EGTEST;EGTESTCD,EGTEST = Chamber Hypertrophy or Enlargement
2026-06-30,C111155,CHYPTENL,CDASHIG,2-1,,EG,CHYPTENL_NORMALIZED,Normalized,LOCAL READING,,Chamber Hypertrophy or Enlargement ECG Assessment (Normalized),EGORRES,EGORRES,C70856,,Result,,6,Y,text,200,,N,N,,,,,,,,,EGORRES;EGTEST;EGTESTCD,EGORRES when EGTESTCD = CHYPTENL
2026-06-30,C119259,EGHRMN,CDASHIG,2-1,,EG,EGHRMN_DENORMALIZED,Denormalized,LOCAL READING,,Mean Heart Rate by Electrocardiogram (Denormalized),EGDAT,EGDAT,C82515,,Date of Assessment,,1,N,date,10,,N,N,,,,,,,,,EGDTC,EGDTC
2026-06-30,C119259,EGHRMN,CDASHIG,2-1,,EG,EGHRMN_DENORMALIZED,Denormalized,LOCAL READING,,Mean Heart Rate by Electrocardiogram (Denormalized),EGMETHOD,EGMETHOD,C82535,,Method,,2,Y,text,50,,N,N,,C71151,EGMETHOD,,,,12 LEAD STANDARD,C71102,EGMETHOD,EGMETHOD = 12 LEAD STANDARD
2026-06-30,C119259,EGHRMN,CDASHIG,2-1,,EG,EGHRMN_DENORMALIZED,Denormalized,LOCAL READING,,Mean Heart Rate by Electrocardiogram (Denormalized),EGPOS,EGPOS,C62164,,Position,,3,N,text,50,,N,N,,C71148,POSITION,SEMI-FOWLERS;SEMI-RECUMBENT;SITTING;STANDING;SUPINE,Semi-Fowlers;Semi-Recumbent;Sitting;Standing;Supine,Single,,,EGPOS,EGPOS
2026-06-30,C119259,EGHRMN,CDASHIG,2-1,,EG,EGHRMN_DENORMALIZED,Denormalized,LOCAL READING,,Mean Heart Rate by Electrocardiogram (Denormalized),EGHRMN_EGORRES,EGORRES,C70856,,ECG Mean Heart Rate Result,,4,Y,integer,3,,N,N,,,,,,,,,EGORRES;EGTEST;EGTESTCD,EGORRES when EGTESTCD = EGHRMN
2026-06-30,C119259,EGHRMN,CDASHIG,2-1,,EG,EGHRMN_DENORMALIZED,Denormalized,LOCAL READING,,Mean Heart Rate by Electrocardiogram (Denormalized),EGHRMN_EGORRESU,EGORRESU,C73688,,Unit,,5,Y,text,50,,N,N,,C71620,UNIT,,,,beats/min,C49673,EGORRESU;EGTEST;EGTESTCD,EGORRESU = beats/min when EGTESTCD = EGHRMN
2026-06-30,C119259,EGHRMN,CDASHIG,2-1,,EG,EGHRMN_NORMALIZED,Normalized,LOCAL READING,,Mean Heart Rate by Electrocardiogram (Normalized),EGDAT,EGDAT,C82515,,Date of Assessment,,1,N,date,10,,N,N,,,,,,,,,EGDTC,EGDTC
2026-06-30,C119259,EGHRMN,CDASHIG,2-1,,EG,EGHRMN_NORMALIZED,Normalized,LOCAL READING,,Mean Heart Rate by Electrocardiogram (Normalized),EGMETHOD,EGMETHOD,C82535,,Method,,2,Y,text,50,,N,N,,C71151,EGMETHOD,,,,12 LEAD STANDARD,C71102,EGMETHOD,EGMETHOD = 12 LEAD STANDARD
2026-06-30,C119259,EGHRMN,CDASHIG,2-1,,EG,EGHRMN_NORMALIZED,Normalized,LOCAL READING,,Mean Heart Rate by Electrocardiogram (Normalized),EGPOS,EGPOS,C62164,,Position,,3,N,text,50,,N,N,,C71148,POSITION,SEMI-FOWLERS;SEMI-RECUMBENT;SITTING;STANDING;SUPINE,Semi-Fowlers;Semi-Recumbent;Sitting;Standing;Supine,Single,,,EGPOS,EGPOS
2026-06-30,C119259,EGHRMN,CDASHIG,2-1,,EG,EGHRMN_NORMALIZED,Normalized,LOCAL READING,,Mean Heart Rate by Electrocardiogram (Normalized),EGTPT,EGTPT,,,Timepoint,,4,N,text,50,,N,N,,,,,,,,,,
2026-06-30,C119259,EGHRMN,CDASHIG,2-1,,EG,EGHRMN_NORMALIZED,Normalized,LOCAL READING,,Mean Heart Rate by Electrocardiogram (Normalized),EGTEST,EGTEST,,,Test,,5,Y,text,40,,N,N,,C71152,EGTEST,,,,ECG Mean Heart Rate,C119259,EGTEST;EGTESTCD,EGTEST = ECG Mean Heart Rate
2026-06-30,C119259,EGHRMN,CDASHIG,2-1,,EG,EGHRMN_NORMALIZED,Normalized,LOCAL READING,,Mean Heart Rate by Electrocardiogram (Normalized),EGORRES,EGORRES,C70856,,Result,,6,Y,integer,3,,N,N,,,,,,,,,EGORRES;EGTEST;EGTESTCD,EGORRES when EGTESTCD = EGHRMN
2026-06-30,C119259,EGHRMN,CDASHIG,2-1,,EG,EGHRMN_NORMALIZED,Normalized,LOCAL READING,,Mean Heart Rate by Electrocardiogram (Normalized),EGORRESU,EGORRESU,C73688,,Unit,,7,Y,text,50,,N,N,,C71620,UNIT,,,,beats/min,C49673,EGORRESU;EGTEST;EGTESTCD,EGORRESU = beats/min when EGTESTCD = EGHRMN
2026-06-30,C181655,EGINTP,CDASHIG,2-1,,EG,EGINTP_DENORMALIZED,Denormalized,LOCAL READING,,ECG Interpretation (Denormalized),EGDAT,EGDAT,C82515,,Date of Assessment,,1,N,date,10,,N,N,,,,,,,,,EGDTC,EGDTC
2026-06-30,C181655,EGINTP,CDASHIG,2-1,,EG,EGINTP_DENORMALIZED,Denormalized,LOCAL READING,,ECG Interpretation (Denormalized),EGINTP_EGORRES,EGORRES,C125009,What was the interpretation of the result?,,,2,Y,text,50,,N,N,,C101834,NORMABNM,ABNORMAL;NORMAL,Abnormal;Normal,Single,,,EGORRES;EGTEST;EGTESTCD,EGORRES when EGTESTCD = EGINTP
2026-06-30,C181655,EGINTP,CDASHIG,2-1,,EG,EGINTP_DENORMALIZED,Denormalized,LOCAL READING,,ECG Interpretation (Denormalized),EGCLSIG,EGCLSIG,C93532,Was the ECG clinically significant?,,,3,N,text,1,,N,N,,C66742,NY,N;Y,No;Yes,Single,,,EGCLSIG,EGCLSIG
2026-06-30,C181655,EGINTP,CDASHIG,2-1,,EG,EGINTP_DENORMALIZED,Denormalized,LOCAL READING,,ECG Interpretation (Denormalized),EGINTP_EGEVAL,EGEVAL,C51824,,Evaluator,,4,N,text,50,,N,N,,C78735,EVAL,ADJUDICATION COMMITTEE;INDEPENDENT ASSESSOR;INVESTIGATOR,Adjudication Committee;Independent Assessor;Investigator,Single,,,EGEVAL,EGEVAL
2026-06-30,C181655,EGINTP,CDASHIG,2-1,,EG,EGINTP_NORMALIZED,Normalized,LOCAL READING,,ECG Interpretation (Normalized),EGDAT,EGDAT,C82515,,Date of Assessment,,1,N,date,10,,N,N,,,,,,,,,EGDTC,EGDTC
2026-06-30,C181655,EGINTP,CDASHIG,2-1,,EG,EGINTP_NORMALIZED,Normalized,LOCAL READING,,ECG Interpretation (Normalized),EGTEST,EGTEST,,,Test,,2,Y,text,40,,N,N,,C71152,EGTEST,,,,Interpretation,C41255,EGTEST;EGTESTCD,EGTEST = Interpretation
2026-06-30,C181655,EGINTP,CDASHIG,2-1,,EG,EGINTP_NORMALIZED,Normalized,LOCAL READING,,ECG Interpretation (Normalized),EGORRES,EGORRES,C125009,,Result,,3,Y,text,50,,N,N,,C101834,NORMABNM,ABNORMAL;NORMAL,Abnormal;Normal,Single,,,EGORRES;EGTEST;EGTESTCD,EGORRES when EGTESTCD = EGINTP
2026-06-30,C181655,EGINTP,CDASHIG,2-1,,EG,EGINTP_NORMALIZED,Normalized,LOCAL READING,,ECG Interpretation (Normalized),EGCLSIG,EGCLSIG,C93532,,Clinical Significance,,4,N,text,1,,N,N,,C66742,NY,N;Y,No;Yes,Single,,,EGCLSIG,EGCLSIG
2026-06-30,C181655,EGINTP,CDASHIG,2-1,,EG,EGINTP_NORMALIZED,Normalized,LOCAL READING,,ECG Interpretation (Normalized),EGEVAL,EGEVAL,C51824,,Evaluator,,5,N,text,50,,N,N,,C78735,EVAL,ADJUDICATION COMMITTEE;INDEPENDENT ASSESSOR;INVESTIGATOR,Adjudication Committee;Independent Assessor;Investigator,Single,,,EGEVAL,EGEVAL
2026-06-30,C82525,,CDASHIG,2-1,,EG,EGPERF,,,,ECG Performed,EGPERF,EGPERF,C82525,Was an ECG performed?,,,1,Y,text,1,,N,N,,C66742,NY,N;Y,No;Yes,Single,,,,[NOT SUBMITTED]; EGSTAT = NOT DONE when EGTESTCD = EGALL
2026-06-30,C82525,,CDASHIG,2-1,,EG,EGPERF,,,,ECG Performed,EGDAT,EGDAT,C82515,,Date of Assessment,,2,N,date,10,,N,N,,,,,,,,,EGDTC,EGDTC
2026-06-30,C111238,IVTIACD,CDASHIG,2-1,,EG,IVTIACD_DENORMALIZED,Denormalized,LOCAL READING,,Intraventricular and Intraatrial Conduction ECG Assessment (Denormalized),EGDAT,EGDAT,C82515,,Date of Assessment,,1,N,date,10,,N,N,,,,,,,,,EGDTC,EGDTC
2026-06-30,C111238,IVTIACD,CDASHIG,2-1,,EG,IVTIACD_DENORMALIZED,Denormalized,LOCAL READING,,Intraventricular and Intraatrial Conduction ECG Assessment (Denormalized),EGMETHOD,EGMETHOD,C82535,,Method,,2,Y,text,50,,N,N,,C71151,EGMETHOD,,,,12 LEAD STANDARD,C71102,EGMETHOD,EGMETHOD = 12 LEAD STANDARD
2026-06-30,C111238,IVTIACD,CDASHIG,2-1,,EG,IVTIACD_DENORMALIZED,Denormalized,LOCAL READING,,Intraventricular and Intraatrial Conduction ECG Assessment (Denormalized),EGPOS,EGPOS,C62164,,Position,,3,N,text,50,,N,N,,C71148,POSITION,SEMI-FOWLERS;SEMI-RECUMBENT;SITTING;STANDING;SUPINE,Semi-Fowlers;Semi-Recumbent;Sitting;Standing;Supine,Single,,,EGPOS,EGPOS
2026-06-30,C111238,IVTIACD,CDASHIG,2-1,,EG,IVTIACD_DENORMALIZED,Denormalized,LOCAL READING,,Intraventricular and Intraatrial Conduction ECG Assessment (Denormalized),IVTIACD_EGORRES,EGORRES,C70856,,Result,,4,Y,text,200,,N,N,,,,,,,,,EGORRES;EGTEST;EGTESTCD,EGORRES when EGTESTCD = IVTIACD
2026-06-30,C111238,IVTIACD,CDASHIG,2-1,,EG,IVTIACD_NORMALIZED,Normalized,LOCAL READING,,Intraventricular and Intraatrial Conduction ECG Assessment (Normalized),EGDAT,EGDAT,C82515,,Date of Assessment,,1,N,date,10,,N,N,,,,,,,,,EGDTC,EGDTC
2026-06-30,C111238,IVTIACD,CDASHIG,2-1,,EG,IVTIACD_NORMALIZED,Normalized,LOCAL READING,,Intraventricular and Intraatrial Conduction ECG Assessment (Normalized),EGMETHOD,EGMETHOD,C82535,,Method,,2,Y,text,50,,N,N,,C71151,EGMETHOD,,,,12 LEAD STANDARD,C71102,EGMETHOD,EGMETHOD = 12 LEAD STANDARD
2026-06-30,C111238,IVTIACD,CDASHIG,2-1,,EG,IVTIACD_NORMALIZED,Normalized,LOCAL READING,,Intraventricular and Intraatrial Conduction ECG Assessment (Normalized),EGPOS,EGPOS,C62164,,Position,,3,N,text,50,,N,N,,C71148,POSITION,SEMI-FOWLERS;SEMI-RECUMBENT;SITTING;STANDING;SUPINE,Semi-Fowlers;Semi-Recumbent;Sitting;Standing;Supine,Single,,,EGPOS,EGPOS
2026-06-30,C111238,IVTIACD,CDASHIG,2-1,,EG,IVTIACD_NORMALIZED,Normalized,LOCAL READING,,Intraventricular and Intraatrial Conduction ECG Assessment (Normalized),EGTPT,EGTPT,,,Timepoint,,4,N,text,50,,N,N,,,,,,,,,,
2026-06-30,C111238,IVTIACD,CDASHIG,2-1,,EG,IVTIACD_NORMALIZED,Normalized,LOCAL READING,,Intraventricular and Intraatrial Conduction ECG Assessment (Normalized),EGTEST,EGTEST,,,Test,,5,Y,text,40,,N,N,,C71152,EGTEST,,,,Intraventricular-Intraatrial Conduction,C111238,EGTEST;EGTESTCD,EGTEST = Intraventricular-Intraatrial Conduction
2026-06-30,C111238,IVTIACD,CDASHIG,2-1,,EG,IVTIACD_NORMALIZED,Normalized,LOCAL READING,,Intraventricular and Intraatrial Conduction ECG Assessment (Normalized),EGORRES,EGORRES,C70856,,Result,,6,Y,text,200,,N,N,,,,,,,,,EGORRES;EGTEST;EGTESTCD,EGORRES when EGTESTCD = IVTIACD
2026-06-30,C111285,PACEMAKR,CDASHIG,2-1,,EG,PACEMAKR_DENORMALIZED,Denormalized,LOCAL READING,,Pacemaker ECG Assessment (Denormalized),EGDAT,EGDAT,C82515,,Date of Assessment,,1,N,date,10,,N,N,,,,,,,,,EGDTC,EGDTC
2026-06-30,C111285,PACEMAKR,CDASHIG,2-1,,EG,PACEMAKR_DENORMALIZED,Denormalized,LOCAL READING,,Pacemaker ECG Assessment (Denormalized),EGMETHOD,EGMETHOD,C82535,,Method,,2,Y,text,50,,N,N,,C71151,EGMETHOD,,,,12 LEAD STANDARD,C71102,EGMETHOD,EGMETHOD = 12 LEAD STANDARD
2026-06-30,C111285,PACEMAKR,CDASHIG,2-1,,EG,PACEMAKR_DENORMALIZED,Denormalized,LOCAL READING,,Pacemaker ECG Assessment (Denormalized),EGPOS,EGPOS,C62164,,Position,,3,N,text,50,,N,N,,C71148,POSITION,SEMI-FOWLERS;SEMI-RECUMBENT;SITTING;STANDING;SUPINE,Semi-Fowlers;Semi-Recumbent;Sitting;Standing;Supine,Single,,,EGPOS,EGPOS
2026-06-30,C111285,PACEMAKR,CDASHIG,2-1,,EG,PACEMAKR_DENORMALIZED,Denormalized,LOCAL READING,,Pacemaker ECG Assessment (Denormalized),PACEMAKR_EGORRES,EGORRES,C70856,,Result,,4,Y,text,200,,N,N,,,,,,,,,EGORRES;EGTEST;EGTESTCD,EGORRES when EGTESTCD = PACEMAKR
2026-06-30,C111285,PACEMAKR,CDASHIG,2-1,,EG,PACEMAKR_NORMALIZED,Normalized,LOCAL READING,,Pacemaker ECG Assessment (Normalized),EGDAT,EGDAT,C82515,,Date of Assessment,,1,N,date,10,,N,N,,,,,,,,,EGDTC,EGDTC
2026-06-30,C111285,PACEMAKR,CDASHIG,2-1,,EG,PACEMAKR_NORMALIZED,Normalized,LOCAL READING,,Pacemaker ECG Assessment (Normalized),EGMETHOD,EGMETHOD,C82535,,Method,,2,Y,text,50,,N,N,,C71151,EGMETHOD,,,,12 LEAD STANDARD,C71102,EGMETHOD,EGMETHOD = 12 LEAD STANDARD
2026-06-30,C111285,PACEMAKR,CDASHIG,2-1,,EG,PACEMAKR_NORMALIZED,Normalized,LOCAL READING,,Pacemaker ECG Assessment (Normalized),EGPOS,EGPOS,C62164,,Position,,3,N,text,50,,N,N,,C71148,POSITION,SEMI-FOWLERS;SEMI-RECUMBENT;SITTING;STANDING;SUPINE,Semi-Fowlers;Semi-Recumbent;Sitting;Standing;Supine,Single,,,EGPOS,EGPOS
2026-06-30,C111285,PACEMAKR,CDASHIG,2-1,,EG,PACEMAKR_NORMALIZED,Normalized,LOCAL READING,,Pacemaker ECG Assessment (Normalized),EGTPT,EGTPT,,,Timepoint,,4,N,text,50,,N,N,,,,,,,,,,
2026-06-30,C111285,PACEMAKR,CDASHIG,2-1,,EG,PACEMAKR_NORMALIZED,Normalized,LOCAL READING,,Pacemaker ECG Assessment (Normalized),EGTEST,EGTEST,,,Test,,5,Y,text,40,,N,N,,C71152,EGTEST,,,,Pacemaker,C111285,EGTEST;EGTESTCD,EGTEST = Pacemaker
2026-06-30,C111285,PACEMAKR,CDASHIG,2-1,,EG,PACEMAKR_NORMALIZED,Normalized,LOCAL READING,,Pacemaker ECG Assessment (Normalized),EGORRES,EGORRES,C70856,,Result,,6,Y,text,200,,N,N,,,,,,,,,EGORRES;EGTEST;EGTESTCD,EGORRES when EGTESTCD = PACEMAKR
2026-06-30,C117773,PRAG,CDASHIG,2-1,,EG,PRAG_DENORMALIZED,Denormalized,LOCAL READING,,PR Interval Aggregate (Denormalized),EGDAT,EGDAT,C82515,,Date of Assessment,,1,N,date,10,,N,N,,,,,,,,,EGDTC,EGDTC
2026-06-30,C117773,PRAG,CDASHIG,2-1,,EG,PRAG_DENORMALIZED,Denormalized,LOCAL READING,,PR Interval Aggregate (Denormalized),EGMETHOD,EGMETHOD,C82535,,Method,,2,Y,text,50,,N,N,,C71151,EGMETHOD,,,,12 LEAD STANDARD,C71102,EGMETHOD,EGMETHOD = 12 LEAD STANDARD
2026-06-30,C117773,PRAG,CDASHIG,2-1,,EG,PRAG_DENORMALIZED,Denormalized,LOCAL READING,,PR Interval Aggregate (Denormalized),EGPOS,EGPOS,C62164,,Position,,3,N,text,50,,N,N,,C71148,POSITION,SEMI-FOWLERS;SEMI-RECUMBENT;SITTING;STANDING;SUPINE,Semi-Fowlers;Semi-Recumbent;Sitting;Standing;Supine,Single,,,EGPOS,EGPOS
2026-06-30,C117773,PRAG,CDASHIG,2-1,,EG,PRAG_DENORMALIZED,Denormalized,LOCAL READING,,PR Interval Aggregate (Denormalized),PRAG_EGORRES,EGORRES,C25330,,"PR Interval, Single Beat Result",,4,Y,integer,3,,N,N,,,,,,,,,EGORRES;EGTEST;EGTESTCD,EGORRES when EGTESTCD = PRAG
2026-06-30,C117773,PRAG,CDASHIG,2-1,,EG,PRAG_DENORMALIZED,Denormalized,LOCAL READING,,PR Interval Aggregate (Denormalized),PRAG_EGORRESU,EGORRESU,C42574,,Unit,,5,Y,text,50,,N,N,,C71620,UNIT,ms;/s,msec;per sec,Single,,,EGORRESU;EGTEST;EGTESTCD,EGORRESU when EGTESTCD = PRAG
2026-06-30,C117773,PRAG,CDASHIG,2-1,,EG,PRAG_NORMALIZED,Normalized,LOCAL READING,,PR Interval Aggregate (Normalized),EGDAT,EGDAT,C82515,,Date of Assessment,,1,N,date,10,,N,N,,,,,,,,,EGDTC,EGDTC
2026-06-30,C117773,PRAG,CDASHIG,2-1,,EG,PRAG_NORMALIZED,Normalized,LOCAL READING,,PR Interval Aggregate (Normalized),EGMETHOD,EGMETHOD,C82535,,Method,,2,Y,integer,3,,N,N,,C71151,EGMETHOD,,,,12 LEAD STANDARD,C71102,EGMETHOD,EGMETHOD = 12 LEAD STANDARD
2026-06-30,C117773,PRAG,CDASHIG,2-1,,EG,PRAG_NORMALIZED,Normalized,LOCAL READING,,PR Interval Aggregate (Normalized),EGPOS,EGPOS,C62164,,Position,,3,N,text,50,,N,N,,C71148,POSITION,SEMI-FOWLERS;SEMI-RECUMBENT;SITTING;STANDING;SUPINE,Semi-Fowlers;Semi-Recumbent;Sitting;Standing;Supine,Single,,,EGPOS,EGPOS
2026-06-30,C117773,PRAG,CDASHIG,2-1,,EG,PRAG_NORMALIZED,Normalized,LOCAL READING,,PR Interval Aggregate (Normalized),EGTPT,EGTPT,,,Timepoint,,4,N,text,50,,N,N,,,,,,,,,,
2026-06-30,C117773,PRAG,CDASHIG,2-1,,EG,PRAG_NORMALIZED,Normalized,LOCAL READING,,PR Interval Aggregate (Normalized),EGTEST,EGTEST,,,Test,,5,Y,text,40,,N,N,,C71152,EGTEST,,,,"PR Interval, Aggregate",C117773,EGTEST;EGTESTCD,"EGTEST = PR Interval, Aggregate"
2026-06-30,C117773,PRAG,CDASHIG,2-1,,EG,PRAG_NORMALIZED,Normalized,LOCAL READING,,PR Interval Aggregate (Normalized),EGORRES,EGORRES,C25330,,Result,,6,Y,integer,3,,N,N,,,,,,,,,EGORRES;EGTEST;EGTESTCD,EGORRES when EGTESTCD = PRAG
2026-06-30,C117773,PRAG,CDASHIG,2-1,,EG,PRAG_NORMALIZED,Normalized,LOCAL READING,,PR Interval Aggregate (Normalized),EGORRESU,EGORRESU,C42574,,Unit,,7,Y,text,50,,N,N,,C71620,UNIT,ms;/s,msec;per sec,Single,,,EGORRESU;EGTEST;EGTESTCD,EGORRESU when EGTESTCD = PRAG
2026-06-30,C117779,QRSAG,CDASHIG,2-1,,EG,QRSAG_DENORMALIZED,Denormalized,LOCAL READING,,QRS Duration Aggregate (Denormalized),EGDAT,EGDAT,C82515,,Date of Assessment,,1,N,date,10,,N,N,,,,,,,,,EGDTC,EGDTC
2026-06-30,C117779,QRSAG,CDASHIG,2-1,,EG,QRSAG_DENORMALIZED,Denormalized,LOCAL READING,,QRS Duration Aggregate (Denormalized),EGMETHOD,EGMETHOD,C82535,,Method,,2,Y,text,50,,N,N,,C71151,EGMETHOD,,,,12 LEAD STANDARD,C71102,EGMETHOD,EGMETHOD = 12 LEAD STANDARD
2026-06-30,C117779,QRSAG,CDASHIG,2-1,,EG,QRSAG_DENORMALIZED,Denormalized,LOCAL READING,,QRS Duration Aggregate (Denormalized),EGPOS,EGPOS,C62164,,Position,,3,N,text,50,,N,N,,C71148,POSITION,SEMI-FOWLERS;SEMI-RECUMBENT;SITTING;STANDING;SUPINE,Semi-Fowlers;Semi-Recumbent;Sitting;Standing;Supine,Single,,,EGPOS,EGPOS
2026-06-30,C117779,QRSAG,CDASHIG,2-1,,EG,QRSAG_DENORMALIZED,Denormalized,LOCAL READING,,QRS Duration Aggregate (Denormalized),QRSAG_EGORRES,EGORRES,C25330,,"QRS Duration, Aggregate Result",,4,Y,integer,3,,N,N,,,,,,,,,EGORRES;EGTEST;EGTESTCD,EGORRES when EGTESTCD = QRSAG
2026-06-30,C117779,QRSAG,CDASHIG,2-1,,EG,QRSAG_DENORMALIZED,Denormalized,LOCAL READING,,QRS Duration Aggregate (Denormalized),QRSAG_EGORRESU,EGORRESU,C42574,,Unit,,5,Y,text,50,,N,N,,C71620,UNIT,ms;/s,msec;per sec,Single,,,EGORRESU;EGTEST;EGTESTCD,EGORRESU when EGTESTCD = QRSAG
2026-06-30,C117779,QRSAG,CDASHIG,2-1,,EG,QRSAG_NORMALIZED,Normalized,LOCAL READING,,QRS Duration Aggregate (Normalized),EGDAT,EGDAT,C82515,,Date of Assessment,,1,N,date,10,,N,N,,,,,,,,,EGDTC,EGDTC
2026-06-30,C117779,QRSAG,CDASHIG,2-1,,EG,QRSAG_NORMALIZED,Normalized,LOCAL READING,,QRS Duration Aggregate (Normalized),EGMETHOD,EGMETHOD,C82535,,Method,,2,Y,text,100,,N,N,,C71151,EGMETHOD,,,,12 LEAD STANDARD,C71102,EGMETHOD,EGMETHOD = 12 LEAD STANDARD
2026-06-30,C117779,QRSAG,CDASHIG,2-1,,EG,QRSAG_NORMALIZED,Normalized,LOCAL READING,,QRS Duration Aggregate (Normalized),EGPOS,EGPOS,C62164,,Position,,3,N,integer,50,,N,N,,C71148,POSITION,SEMI-FOWLERS;SEMI-RECUMBENT;SITTING;STANDING;SUPINE,Semi-Fowlers;Semi-Recumbent;Sitting;Standing;Supine,Single,,,EGPOS,EGPOS
2026-06-30,C117779,QRSAG,CDASHIG,2-1,,EG,QRSAG_NORMALIZED,Normalized,LOCAL READING,,QRS Duration Aggregate (Normalized),EGTPT,EGTPT,,,Timepoint,,4,N,text,50,,N,N,,,,,,,,,,
2026-06-30,C117779,QRSAG,CDASHIG,2-1,,EG,QRSAG_NORMALIZED,Normalized,LOCAL READING,,QRS Duration Aggregate (Normalized),EGTEST,EGTEST,,,Test,,5,Y,text,40,,N,N,,C71152,EGTEST,,,,"QRS Duration, Aggregate",C117779,EGTEST;EGTESTCD,"EGTEST = QRS Duration, Aggregate"
2026-06-30,C117779,QRSAG,CDASHIG,2-1,,EG,QRSAG_NORMALIZED,Normalized,LOCAL READING,,QRS Duration Aggregate (Normalized),EGORRES,EGORRES,C25330,,Result,,6,Y,integer,3,,N,N,,,,,,,,,EGORRES;EGTEST;EGTESTCD,EGORRES when EGTESTCD = QRSAG
2026-06-30,C117779,QRSAG,CDASHIG,2-1,,EG,QRSAG_NORMALIZED,Normalized,LOCAL READING,,QRS Duration Aggregate (Normalized),EGORRESU,EGORRESU,C42574,,Unit,,7,Y,text,50,,N,N,,C71620,UNIT,ms;/s,msec;per sec,Single,,,EGORRESU;EGTEST;EGTESTCD,EGORRESU when EGTESTCD = QRSAG
2026-06-30,C118165,QRS_AXIS,CDASHIG,2-1,,EG,QRS_AXIS_DENORMALIZED,Denormalized,LOCAL READING,,QRS Axis (Denormalized),EGDAT,EGDAT,C82515,,Date of Assessment,,1,N,date,10,,N,N,,,,,,,,,EGDTC,EGDTC
2026-06-30,C118165,QRS_AXIS,CDASHIG,2-1,,EG,QRS_AXIS_DENORMALIZED,Denormalized,LOCAL READING,,QRS Axis (Denormalized),EGMETHOD,EGMETHOD,C82535,,Method,,2,Y,text,50,,N,N,,C71151,EGMETHOD,,,,12 LEAD STANDARD,C71102,EGMETHOD,EGMETHOD = 12 LEAD STANDARD
2026-06-30,C118165,QRS_AXIS,CDASHIG,2-1,,EG,QRS_AXIS_DENORMALIZED,Denormalized,LOCAL READING,,QRS Axis (Denormalized),EGPOS,EGPOS,C62164,,Position,,3,N,text,50,,N,N,,C71148,POSITION,SEMI-FOWLERS;SEMI-RECUMBENT;SITTING;STANDING;SUPINE,Semi-Fowlers;Semi-Recumbent;Sitting;Standing;Supine,Single,,,EGPOS,EGPOS
2026-06-30,C118165,QRS_AXIS,CDASHIG,2-1,,EG,QRS_AXIS_DENORMALIZED,Denormalized,LOCAL READING,,QRS Axis (Denormalized),QRS_AXIS_EGORRES,EGORRES,C70856,,Result,,4,Y,integer,3,,N,N,,,,,,,,,EGORRES;EGTEST;EGTESTCD,EGORRES when EGTESTCD = QRS_AXIS
2026-06-30,C118165,QRS_AXIS,CDASHIG,2-1,,EG,QRS_AXIS_DENORMALIZED,Denormalized,LOCAL READING,,QRS Axis (Denormalized),QRS_AXIS_EGORRESU,EGORRESU,C68667,,Unit,,5,Y,text,50,,N,N,,C71620,UNIT,,,,,,EGORRESU;EGTEST;EGTESTCD,EGORRESU when EGTESTCD = QRS_AXIS
2026-06-30,C118165,QRS_AXIS,CDASHIG,2-1,,EG,QRS_AXIS_NORMALIZED,Normalized,LOCAL READING,,QRS Axis (Normalized),EGDAT,EGDAT,C82515,,Date of Assessment,,1,N,date,10,,N,N,,,,,,,,,EGDTC,EGDTC
2026-06-30,C118165,QRS_AXIS,CDASHIG,2-1,,EG,QRS_AXIS_NORMALIZED,Normalized,LOCAL READING,,QRS Axis (Normalized),EGMETHOD,EGMETHOD,C82535,,Method,,2,Y,text,50,,N,N,,C71151,EGMETHOD,,,,12 LEAD STANDARD,C71102,EGMETHOD,EGMETHOD = 12 LEAD STANDARD
2026-06-30,C118165,QRS_AXIS,CDASHIG,2-1,,EG,QRS_AXIS_NORMALIZED,Normalized,LOCAL READING,,QRS Axis (Normalized),EGPOS,EGPOS,C62164,,Position,,3,N,text,50,,N,N,,C71148,POSITION,SEMI-FOWLERS;SEMI-RECUMBENT;SITTING;STANDING;SUPINE,Semi-Fowlers;Semi-Recumbent;Sitting;Standing;Supine,Single,,,EGPOS,EGPOS
2026-06-30,C118165,QRS_AXIS,CDASHIG,2-1,,EG,QRS_AXIS_NORMALIZED,Normalized,LOCAL READING,,QRS Axis (Normalized),EGTPT,EGTPT,,,Timepoint,,4,N,text,50,,N,N,,,,,,,,,,
2026-06-30,C118165,QRS_AXIS,CDASHIG,2-1,,EG,QRS_AXIS_NORMALIZED,Normalized,LOCAL READING,,QRS Axis (Normalized),EGTEST,EGTEST,,,Test,,5,Y,text,40,,N,N,,C71152,EGTEST,,,,QRS Axis,C118165,EGTEST;EGTESTCD,EGTEST = QRS Axis
2026-06-30,C118165,QRS_AXIS,CDASHIG,2-1,,EG,QRS_AXIS_NORMALIZED,Normalized,LOCAL READING,,QRS Axis (Normalized),EGORRES,EGORRES,C70856,,Result,,6,Y,integer,3,,N,N,,,,,,,,,EGORRES;EGTEST;EGTESTCD,EGORRES when EGTESTCD = QRS_AXIS
2026-06-30,C118165,QRS_AXIS,CDASHIG,2-1,,EG,QRS_AXIS_NORMALIZED,Normalized,LOCAL READING,,QRS Axis (Normalized),EGORRESU,EGORRESU,C68667,,Unit,,7,Y,text,50,,N,N,,C71620,UNIT,,,,,,EGORRESU;EGTEST;EGTESTCD,EGORRESU when EGTESTCD = QRS_AXIS
2026-06-30,C117783,QTAG,CDASHIG,2-1,,EG,QTAG_DENORMALIZED,Denormalized,LOCAL READING,,QT Interval Aggregate (Denormalized),EGDAT,EGDAT,C82515,,Date of Assessment,,1,N,date,10,,N,N,,,,,,,,,EGDTC,EGDTC
2026-06-30,C117783,QTAG,CDASHIG,2-1,,EG,QTAG_DENORMALIZED,Denormalized,LOCAL READING,,QT Interval Aggregate (Denormalized),EGMETHOD,EGMETHOD,C82535,,Method,,2,Y,text,50,,N,N,,C71151,EGMETHOD,,,,12 LEAD STANDARD,C71102,EGMETHOD,EGMETHOD = 12 LEAD STANDARD
2026-06-30,C117783,QTAG,CDASHIG,2-1,,EG,QTAG_DENORMALIZED,Denormalized,LOCAL READING,,QT Interval Aggregate (Denormalized),EGPOS,EGPOS,C62164,,Position,,3,N,text,50,,N,N,,C71148,POSITION,SEMI-FOWLERS;SEMI-RECUMBENT;SITTING;STANDING;SUPINE,Semi-Fowlers;Semi-Recumbent;Sitting;Standing;Supine,Single,,,EGPOS,EGPOS
2026-06-30,C117783,QTAG,CDASHIG,2-1,,EG,QTAG_DENORMALIZED,Denormalized,LOCAL READING,,QT Interval Aggregate (Denormalized),QTAG_EGORRES,EGORRES,C25330,,"QT Interval, Aggregate Result",,4,Y,integer,3,,N,N,,,,,,,,,EGORRES;EGTEST;EGTESTCD,EGORRES when EGTESTCD = QTAG
2026-06-30,C117783,QTAG,CDASHIG,2-1,,EG,QTAG_DENORMALIZED,Denormalized,LOCAL READING,,QT Interval Aggregate (Denormalized),QTAG_EGORRESU,EGORRESU,C42574,,Unit,,5,Y,text,50,,N,N,,C71620,UNIT,ms;/s,msec;per sec,Single,,,EGORRESU;EGTEST;EGTESTCD,EGORRESU when EGTESTCD = QTAG
2026-06-30,C117783,QTAG,CDASHIG,2-1,,EG,QTAG_NORMALIZED,Normalized,LOCAL READING,,QT Interval Aggregate (Normalized),EGDAT,EGDAT,C82515,,Date of Assessment,,1,N,date,10,,N,N,,,,,,,,,EGDTC,EGDTC
2026-06-30,C117783,QTAG,CDASHIG,2-1,,EG,QTAG_NORMALIZED,Normalized,LOCAL READING,,QT Interval Aggregate (Normalized),EGMETHOD,EGMETHOD,C82535,,Method,,2,Y,text,50,,N,N,,C71151,EGMETHOD,,,,12 LEAD STANDARD,C71102,EGMETHOD,EGMETHOD = 12 LEAD STANDARD
2026-06-30,C117783,QTAG,CDASHIG,2-1,,EG,QTAG_NORMALIZED,Normalized,LOCAL READING,,QT Interval Aggregate (Normalized),EGPOS,EGPOS,C62164,,Position,,3,N,text,50,,N,N,,C71148,POSITION,SEMI-FOWLERS;SEMI-RECUMBENT;SITTING;STANDING;SUPINE,Semi-Fowlers;Semi-Recumbent;Sitting;Standing;Supine,Single,,,EGPOS,EGPOS
2026-06-30,C117783,QTAG,CDASHIG,2-1,,EG,QTAG_NORMALIZED,Normalized,LOCAL READING,,QT Interval Aggregate (Normalized),EGTPT,EGTPT,,,Timepoint,,4,N,text,50,,N,N,,,,,,,,,,
2026-06-30,C117783,QTAG,CDASHIG,2-1,,EG,QTAG_NORMALIZED,Normalized,LOCAL READING,,QT Interval Aggregate (Normalized),EGTEST,EGTEST,,,Test,,5,Y,text,40,,N,N,,C71152,EGTEST,,,,"QT Interval, Aggregate",C117783,EGTEST;EGTESTCD,"EGTEST = QT Interval, Aggregate"
2026-06-30,C117783,QTAG,CDASHIG,2-1,,EG,QTAG_NORMALIZED,Normalized,LOCAL READING,,QT Interval Aggregate (Normalized),EGORRES,EGORRES,C25330,,Result,,6,Y,integer,3,,N,N,,,,,,,,,EGORRES;EGTEST;EGTESTCD,EGORRES when EGTESTCD = QTAG
2026-06-30,C117783,QTAG,CDASHIG,2-1,,EG,QTAG_NORMALIZED,Normalized,LOCAL READING,,QT Interval Aggregate (Normalized),EGORRESU,EGORRESU,C42574,,Unit,,7,Y,text,50,,N,N,,C71620,UNIT,ms;/s,msec;per sec,Single,,,EGORRESU;EGTEST;EGTESTCD,EGORRESU when EGTESTCD = QTAG
2026-06-30,C117784,QTCBAG,CDASHIG,2-1,,EG,QTCBAG_DENORMALIZED,Denormalized,LOCAL READING,,QTCB Interval Aggregate (Denormalized),EGDAT,EGDAT,C82515,,Date of Assessment,,1,N,date,10,,N,N,,,,,,,,,EGDTC,EGDTC
2026-06-30,C117784,QTCBAG,CDASHIG,2-1,,EG,QTCBAG_DENORMALIZED,Denormalized,LOCAL READING,,QTCB Interval Aggregate (Denormalized),EGMETHOD,EGMETHOD,C82535,,Method,,2,Y,text,50,,N,N,,C71151,EGMETHOD,,,,12 LEAD STANDARD,C71102,EGMETHOD,EGMETHOD = 12 LEAD STANDARD
2026-06-30,C117784,QTCBAG,CDASHIG,2-1,,EG,QTCBAG_DENORMALIZED,Denormalized,LOCAL READING,,QTCB Interval Aggregate (Denormalized),EGPOS,EGPOS,C62164,,Position,,3,N,text,50,,N,N,,C71148,POSITION,SEMI-FOWLERS;SEMI-RECUMBENT;SITTING;STANDING;SUPINE,Semi-Fowlers;Semi-Recumbent;Sitting;Standing;Supine,Single,,,EGPOS,EGPOS
2026-06-30,C117784,QTCBAG,CDASHIG,2-1,,EG,QTCBAG_DENORMALIZED,Denormalized,LOCAL READING,,QTCB Interval Aggregate (Denormalized),QTCBAG_EGORRES,EGORRES,C25330,,"QTcB Interval, Aggregate Result",,4,Y,integer,3,,N,N,,,,,,,,,EGORRES;EGTEST;EGTESTCD,EGORRES when EGTESTCD = QTCBAG
2026-06-30,C117784,QTCBAG,CDASHIG,2-1,,EG,QTCBAG_DENORMALIZED,Denormalized,LOCAL READING,,QTCB Interval Aggregate (Denormalized),QTCBAG_EGORRESU,EGORRESU,C42574,,Unit,,5,Y,text,50,,N,N,,C71620,UNIT,ms;/s,msec;per sec,Single,,,EGORRESU;EGTEST;EGTESTCD,EGORRESU when EGTESTCD = QTCBAG
2026-06-30,C117784,QTCBAG,CDASHIG,2-1,,EG,QTCBAG_NORMALIZED,Normalized,LOCAL READING,,QTCB Interval Aggregate (Normalized),EGDAT,EGDAT,C82515,,Date of Assessment,,1,N,date,10,,N,N,,,,,,,,,EGDTC,EGDTC
2026-06-30,C117784,QTCBAG,CDASHIG,2-1,,EG,QTCBAG_NORMALIZED,Normalized,LOCAL READING,,QTCB Interval Aggregate (Normalized),EGMETHOD,EGMETHOD,C82535,,Method,,2,Y,text,50,,N,N,,C71151,EGMETHOD,,,,12 LEAD STANDARD,C71102,EGMETHOD,EGMETHOD = 12 LEAD STANDARD
2026-06-30,C117784,QTCBAG,CDASHIG,2-1,,EG,QTCBAG_NORMALIZED,Normalized,LOCAL READING,,QTCB Interval Aggregate (Normalized),EGPOS,EGPOS,C62164,,Position,,3,N,text,50,,N,N,,C71148,POSITION,SEMI-FOWLERS;SEMI-RECUMBENT;SITTING;STANDING;SUPINE,Semi-Fowlers;Semi-Recumbent;Sitting;Standing;Supine,Single,,,EGPOS,EGPOS
2026-06-30,C117784,QTCBAG,CDASHIG,2-1,,EG,QTCBAG_NORMALIZED,Normalized,LOCAL READING,,QTCB Interval Aggregate (Normalized),EGTPT,EGTPT,,,Timepoint,,4,N,text,50,,N,N,,,,,,,,,,
2026-06-30,C117784,QTCBAG,CDASHIG,2-1,,EG,QTCBAG_NORMALIZED,Normalized,LOCAL READING,,QTCB Interval Aggregate (Normalized),EGTEST,EGTEST,,,Test,,5,Y,text,40,,N,N,,C71152,EGTEST,,,,"QTcB Interval, Aggregate",C117784,EGTEST;EGTESTCD,"EGTEST = QTcB Interval, Aggregate"
2026-06-30,C117784,QTCBAG,CDASHIG,2-1,,EG,QTCBAG_NORMALIZED,Normalized,LOCAL READING,,QTCB Interval Aggregate (Normalized),EGORRES,EGORRES,C25330,,Result,,6,Y,integer,3,,N,N,,,,,,,,,EGORRES;EGTEST;EGTESTCD,EGORRES when EGTESTCD = QTCBAG
2026-06-30,C117784,QTCBAG,CDASHIG,2-1,,EG,QTCBAG_NORMALIZED,Normalized,LOCAL READING,,QTCB Interval Aggregate (Normalized),EGORRESU,EGORRESU,C42574,,Unit,,7,Y,text,50,,N,N,,C71620,UNIT,ms;/s,msec;per sec,Single,,,EGORRESU;EGTEST;EGTESTCD,EGORRESU when EGTESTCD = QTCBAG
2026-06-30,C117786,QTCFAG,CDASHIG,2-1,,EG,QTCFAG_DENORMALIZED,Denormalized,LOCAL READING,,QTCF Interval Aggregate (Denormalized),EGDAT,EGDAT,C82515,,Date of Assessment,,1,N,date,10,,N,N,,,,,,,,,EGDTC,EGDTC
2026-06-30,C117786,QTCFAG,CDASHIG,2-1,,EG,QTCFAG_DENORMALIZED,Denormalized,LOCAL READING,,QTCF Interval Aggregate (Denormalized),EGMETHOD,EGMETHOD,C82535,,Method,,2,Y,text,50,,N,N,,C71151,EGMETHOD,,,,12 LEAD STANDARD,C71102,EGMETHOD,EGMETHOD = 12 LEAD STANDARD
2026-06-30,C117786,QTCFAG,CDASHIG,2-1,,EG,QTCFAG_DENORMALIZED,Denormalized,LOCAL READING,,QTCF Interval Aggregate (Denormalized),EGPOS,EGPOS,C62164,,Position,,3,N,text,50,,N,N,,C71148,POSITION,SEMI-FOWLERS;SEMI-RECUMBENT;SITTING;STANDING;SUPINE,Semi-Fowlers;Semi-Recumbent;Sitting;Standing;Supine,Single,,,EGPOS,EGPOS
2026-06-30,C117786,QTCFAG,CDASHIG,2-1,,EG,QTCFAG_DENORMALIZED,Denormalized,LOCAL READING,,QTCF Interval Aggregate (Denormalized),QTCFAG_EGORRES,EGORRES,C25330,,"QTcF Interval, Aggregate Result",,4,Y,integer,3,,N,N,,,,,,,,,EGORRES;EGTEST;EGTESTCD,EGORRES when EGTESTCD = QTCFAG
2026-06-30,C117786,QTCFAG,CDASHIG,2-1,,EG,QTCFAG_DENORMALIZED,Denormalized,LOCAL READING,,QTCF Interval Aggregate (Denormalized),QTCFAG_EGORRESU,EGORRESU,C42574,,Unit,,5,Y,text,50,,N,N,,C71620,UNIT,ms;/s,msec;per sec,Single,,,EGORRESU;EGTEST;EGTESTCD,EGORRESU when EGTESTCD = QTCFAG
2026-06-30,C117786,QTCFAG,CDASHIG,2-1,,EG,QTCFAG_NORMALIZED,Normalized,LOCAL READING,,QTCF Interval Aggregate (Normalized),EGDAT,EGDAT,C82515,,Date of Assessment,,1,N,date,10,,N,N,,,,,,,,,EGDTC,EGDTC
2026-06-30,C117786,QTCFAG,CDASHIG,2-1,,EG,QTCFAG_NORMALIZED,Normalized,LOCAL READING,,QTCF Interval Aggregate (Normalized),EGMETHOD,EGMETHOD,C82535,,Method,,2,Y,text,50,,N,N,,C71151,EGMETHOD,,,,12 LEAD STANDARD,C71102,EGMETHOD,EGMETHOD = 12 LEAD STANDARD
2026-06-30,C117786,QTCFAG,CDASHIG,2-1,,EG,QTCFAG_NORMALIZED,Normalized,LOCAL READING,,QTCF Interval Aggregate (Normalized),EGPOS,EGPOS,C62164,,Position,,3,N,text,50,,N,N,,C71148,POSITION,SEMI-FOWLERS;SEMI-RECUMBENT;SITTING;STANDING;SUPINE,Semi-Fowlers;Semi-Recumbent;Sitting;Standing;Supine,Single,,,EGPOS,EGPOS
2026-06-30,C117786,QTCFAG,CDASHIG,2-1,,EG,QTCFAG_NORMALIZED,Normalized,LOCAL READING,,QTCF Interval Aggregate (Normalized),EGTPT,EGTPT,,,Timepoint,,4,N,text,50,,N,N,,,,,,,,,,
2026-06-30,C117786,QTCFAG,CDASHIG,2-1,,EG,QTCFAG_NORMALIZED,Normalized,LOCAL READING,,QTCF Interval Aggregate (Normalized),EGTEST,EGTEST,,,Test,,5,Y,text,40,,N,N,,C71152,EGTEST,,,,"QTcF Interval, Aggregate",C117786,EGTEST;EGTESTCD,"EGTEST = QTcF Interval, Aggregate"
2026-06-30,C117786,QTCFAG,CDASHIG,2-1,,EG,QTCFAG_NORMALIZED,Normalized,LOCAL READING,,QTCF Interval Aggregate (Normalized),EGORRES,EGORRES,C25330,,Result,,6,Y,integer,3,,N,N,,,,,,,,,EGORRES;EGTEST;EGTESTCD,EGORRES when EGTESTCD = QTCFAG
2026-06-30,C117786,QTCFAG,CDASHIG,2-1,,EG,QTCFAG_NORMALIZED,Normalized,LOCAL READING,,QTCF Interval Aggregate (Normalized),EGORRESU,EGORRESU,C42574,,Unit,,7,Y,text,50,,N,N,,C71620,UNIT,ms;/s,msec;per sec,Single,,,EGORRESU;EGTEST;EGTESTCD,EGORRESU when EGTESTCD = QTCFAG
2026-06-30,C174285,QTCUNSAG,CDASHIG,2-1,,EG,QTCUNSAG_DENORMALIZED,Denormalized,LOCAL READING,,QTC Aggregate Method Unspecified (Denormalized),EGDAT,EGDAT,C82515,,Date of Assessment,,1,N,date,10,,N,N,,,,,,,,,EGDTC,EGDTC
2026-06-30,C174285,QTCUNSAG,CDASHIG,2-1,,EG,QTCUNSAG_DENORMALIZED,Denormalized,LOCAL READING,,QTC Aggregate Method Unspecified (Denormalized),EGMETHOD,EGMETHOD,C82535,,Method,,2,Y,text,50,,N,N,,C71151,EGMETHOD,,,,12 LEAD STANDARD,C71102,EGMETHOD,EGMETHOD = 12 LEAD STANDARD
2026-06-30,C174285,QTCUNSAG,CDASHIG,2-1,,EG,QTCUNSAG_DENORMALIZED,Denormalized,LOCAL READING,,QTC Aggregate Method Unspecified (Denormalized),EGPOS,EGPOS,C62164,,Position,,3,N,text,50,,N,N,,C71148,POSITION,SEMI-FOWLERS;SEMI-RECUMBENT;SITTING;STANDING;SUPINE,Semi-Fowlers;Semi-Recumbent;Sitting;Standing;Supine,Single,,,EGPOS,EGPOS
2026-06-30,C174285,QTCUNSAG,CDASHIG,2-1,,EG,QTCUNSAG_DENORMALIZED,Denormalized,LOCAL READING,,QTC Aggregate Method Unspecified (Denormalized),QTCUNSAG_EGORRES,EGORRES,C25330,,"QTc Corr Method Unspecified, Aggregate Result Unit",,4,Y,integer,3,,N,N,,,,,,,,,EGORRES;EGTEST;EGTESTCD,EGORRES when EGTESTCD = QTCUNSAG
2026-06-30,C174285,QTCUNSAG,CDASHIG,2-1,,EG,QTCUNSAG_DENORMALIZED,Denormalized,LOCAL READING,,QTC Aggregate Method Unspecified (Denormalized),QTCUNSAG_EGORRESU,EGORRESU,C42574,,Unit,,5,Y,text,50,,N,N,,C71620,UNIT,ms;/s,msec;per sec,Single,,,EGORRESU;EGTEST;EGTESTCD,EGORRESU when EGTESTCD = QTCUNSAG
2026-06-30,C174285,QTCUNSAG,CDASHIG,2-1,,EG,QTCUNSAG_NORMALIZED,Normalized,LOCAL READING,,QTC Aggregate Method Unspecified (Normalized),EGDAT,EGDAT,C82515,,Date of Assessment,,1,N,date,10,,N,N,,,,,,,,,EGDTC,EGDTC
2026-06-30,C174285,QTCUNSAG,CDASHIG,2-1,,EG,QTCUNSAG_NORMALIZED,Normalized,LOCAL READING,,QTC Aggregate Method Unspecified (Normalized),EGMETHOD,EGMETHOD,C82535,,Method,,2,Y,text,50,,N,N,,C71151,EGMETHOD,,,,12 LEAD STANDARD,C71102,EGMETHOD,EGMETHOD = 12 LEAD STANDARD
2026-06-30,C174285,QTCUNSAG,CDASHIG,2-1,,EG,QTCUNSAG_NORMALIZED,Normalized,LOCAL READING,,QTC Aggregate Method Unspecified (Normalized),EGPOS,EGPOS,C62164,,Position,,3,N,text,50,,N,N,,C71148,POSITION,SEMI-FOWLERS;SEMI-RECUMBENT;SITTING;STANDING;SUPINE,Semi-Fowlers;Semi-Recumbent;Sitting;Standing;Supine,Single,,,EGPOS,EGPOS
2026-06-30,C174285,QTCUNSAG,CDASHIG,2-1,,EG,QTCUNSAG_NORMALIZED,Normalized,LOCAL READING,,QTC Aggregate Method Unspecified (Normalized),EGTPT,EGTPT,,,Timepoint,,4,N,text,50,,N,N,,,,,,,,,,
2026-06-30,C174285,QTCUNSAG,CDASHIG,2-1,,EG,QTCUNSAG_NORMALIZED,Normalized,LOCAL READING,,QTC Aggregate Method Unspecified (Normalized),EGTEST,EGTEST,,,Test,,5,Y,text,40,,N,N,,C71152,EGTEST,,,,"QTc Corr Method Unspecified, Aggregate",C174285,EGTEST;EGTESTCD,"EGTEST = QTc Corr Method Unspecified, Aggregate"
2026-06-30,C174285,QTCUNSAG,CDASHIG,2-1,,EG,QTCUNSAG_NORMALIZED,Normalized,LOCAL READING,,QTC Aggregate Method Unspecified (Normalized),EGORRES,EGORRES,C25330,,Result,,6,Y,text,50,,N,N,,,,,,,,,EGORRES;EGTEST;EGTESTCD,EGORRES when EGTESTCD = QTCUNSAG
2026-06-30,C174285,QTCUNSAG,CDASHIG,2-1,,EG,QTCUNSAG_NORMALIZED,Normalized,LOCAL READING,,QTC Aggregate Method Unspecified (Normalized),EGORRESU,EGORRESU,C42574,,Unit,,7,Y,text,50,,N,N,,C71620,UNIT,ms;/s,msec;per sec,Single,,,EGORRESU;EGTEST;EGTESTCD,EGORRESU when EGTESTCD = QTCUNSAG
2026-06-30,C111307,RHYNOS,CDASHIG,2-1,,EG,RHYNOS_DENORMALIZED,Denormalized,LOCAL READING,,Rhythm Not Otherwise Specified ECG Assessment (Denormalized),EGDAT,EGDAT,C82515,,Date of Assessment,,1,N,date,10,,N,N,,,,,,,,,EGDTC,EGDTC
2026-06-30,C111307,RHYNOS,CDASHIG,2-1,,EG,RHYNOS_DENORMALIZED,Denormalized,LOCAL READING,,Rhythm Not Otherwise Specified ECG Assessment (Denormalized),EGMETHOD,EGMETHOD,C82535,,Method,,2,Y,text,50,,N,N,,C71151,EGMETHOD,,,,12 LEAD STANDARD,C71102,EGMETHOD,EGMETHOD = 12 LEAD STANDARD
2026-06-30,C111307,RHYNOS,CDASHIG,2-1,,EG,RHYNOS_DENORMALIZED,Denormalized,LOCAL READING,,Rhythm Not Otherwise Specified ECG Assessment (Denormalized),EGPOS,EGPOS,C62164,,Position,,3,N,text,50,,N,N,,C71148,POSITION,SEMI-FOWLERS;SEMI-RECUMBENT;SITTING;STANDING;SUPINE,Semi-Fowlers;Semi-Recumbent;Sitting;Standing;Supine,Single,,,EGPOS,EGPOS
2026-06-30,C111307,RHYNOS,CDASHIG,2-1,,EG,RHYNOS_DENORMALIZED,Denormalized,LOCAL READING,,Rhythm Not Otherwise Specified ECG Assessment (Denormalized),RHYNOS_EGORRES,EGORRES,C70856,,Result,,4,Y,text,200,,N,N,,,,,,,,,EGORRES;EGTEST;EGTESTCD,EGORRES when EGTESTCD = RHYNOS
2026-06-30,C111307,RHYNOS,CDASHIG,2-1,,EG,RHYNOS_NORMALIZED,Normalized,LOCAL READING,,Rhythm Not Otherwise Specified ECG Assessment (Normalized),EGDAT,EGDAT,C82515,,Date of Assessment,,1,N,date,10,,N,N,,,,,,,,,EGDTC,EGDTC
2026-06-30,C111307,RHYNOS,CDASHIG,2-1,,EG,RHYNOS_NORMALIZED,Normalized,LOCAL READING,,Rhythm Not Otherwise Specified ECG Assessment (Normalized),EGMETHOD,EGMETHOD,C82535,,Method,,2,Y,text,50,,N,N,,C71151,EGMETHOD,,,,12 LEAD STANDARD,C71102,EGMETHOD,EGMETHOD = 12 LEAD STANDARD
2026-06-30,C111307,RHYNOS,CDASHIG,2-1,,EG,RHYNOS_NORMALIZED,Normalized,LOCAL READING,,Rhythm Not Otherwise Specified ECG Assessment (Normalized),EGPOS,EGPOS,C62164,,Position,,3,N,text,50,,N,N,,C71148,POSITION,SEMI-FOWLERS;SEMI-RECUMBENT;SITTING;STANDING;SUPINE,Semi-Fowlers;Semi-Recumbent;Sitting;Standing;Supine,Single,,,EGPOS,EGPOS
2026-06-30,C111307,RHYNOS,CDASHIG,2-1,,EG,RHYNOS_NORMALIZED,Normalized,LOCAL READING,,Rhythm Not Otherwise Specified ECG Assessment (Normalized),EGTPT,EGTPT,,,Timepoint,,4,N,text,50,,N,N,,,,,,,,,,
2026-06-30,C111307,RHYNOS,CDASHIG,2-1,,EG,RHYNOS_NORMALIZED,Normalized,LOCAL READING,,Rhythm Not Otherwise Specified ECG Assessment (Normalized),EGTEST,EGTEST,,,Test,,5,Y,text,40,,N,N,,C71152,EGTEST,,,,Rhythm Not Otherwise Specified,C111307,EGTEST;EGTESTCD,EGTEST = Rhythm Not Otherwise Specified
2026-06-30,C111307,RHYNOS,CDASHIG,2-1,,EG,RHYNOS_NORMALIZED,Normalized,LOCAL READING,,Rhythm Not Otherwise Specified ECG Assessment (Normalized),EGORRES,EGORRES,C70856,,Result,,6,Y,text,200,,N,N,,,,,,,,,EGORRES;EGTEST;EGTESTCD,EGORRES when EGTESTCD = RHYNOS
2026-06-30,C117791,RRAG,CDASHIG,2-1,,EG,RRAG_DENORMALIZED,Denormalized,LOCAL READING,,RR Interval Aggregate (Denormalized),EGDAT,EGDAT,C82515,,Date of Assessment,,1,N,date,10,,N,N,,,,,,,,,EGDTC,EGDTC
2026-06-30,C117791,RRAG,CDASHIG,2-1,,EG,RRAG_DENORMALIZED,Denormalized,LOCAL READING,,RR Interval Aggregate (Denormalized),EGMETHOD,EGMETHOD,C82535,,Method,,2,Y,text,50,,N,N,,C71151,EGMETHOD,,,,12 LEAD STANDARD,C71102,EGMETHOD,EGMETHOD = 12 LEAD STANDARD
2026-06-30,C117791,RRAG,CDASHIG,2-1,,EG,RRAG_DENORMALIZED,Denormalized,LOCAL READING,,RR Interval Aggregate (Denormalized),EGPOS,EGPOS,C62164,,Position,,3,N,text,50,,N,N,,C71148,POSITION,SEMI-FOWLERS;SEMI-RECUMBENT;SITTING;STANDING;SUPINE,Semi-Fowlers;Semi-Recumbent;Sitting;Standing;Supine,Single,,,EGPOS,EGPOS
2026-06-30,C117791,RRAG,CDASHIG,2-1,,EG,RRAG_DENORMALIZED,Denormalized,LOCAL READING,,RR Interval Aggregate (Denormalized),RRAG_EGORRES,EGORRES,C42574,,Result,,4,Y,integer,3,,N,N,,,,,,,,,EGORRES;EGTEST;EGTESTCD,EGORRES when EGTESTCD = RRAG
2026-06-30,C117791,RRAG,CDASHIG,2-1,,EG,RRAG_DENORMALIZED,Denormalized,LOCAL READING,,RR Interval Aggregate (Denormalized),RRAG_EGORRESU,EGORRESU,C42574,,Unit,,5,Y,text,50,,N,N,,C71620,UNIT,,,,ms,C41140,EGORRESU;EGTEST;EGTESTCD,EGORRESU when EGTESTCD = RRAG
2026-06-30,C117791,RRAG,CDASHIG,2-1,,EG,RRAG_NORMALIZED,Normalized,LOCAL READING,,RR Interval Aggregate (Normalized),EGDAT,EGDAT,C82515,,Date of Assessment,,1,N,date,10,,N,N,,,,,,,,,EGDTC,EGDTC
2026-06-30,C117791,RRAG,CDASHIG,2-1,,EG,RRAG_NORMALIZED,Normalized,LOCAL READING,,RR Interval Aggregate (Normalized),EGMETHOD,EGMETHOD,C82535,,Method,,2,Y,text,50,,N,N,,C71151,EGMETHOD,,,,12 LEAD STANDARD,C71102,EGMETHOD,EGMETHOD = 12 LEAD STANDARD
2026-06-30,C117791,RRAG,CDASHIG,2-1,,EG,RRAG_NORMALIZED,Normalized,LOCAL READING,,RR Interval Aggregate (Normalized),EGPOS,EGPOS,C62164,,Position,,3,N,text,50,,N,N,,C71148,POSITION,SEMI-FOWLERS;SEMI-RECUMBENT;SITTING;STANDING;SUPINE,Semi-Fowlers;Semi-Recumbent;Sitting;Standing;Supine,Single,,,EGPOS,EGPOS
2026-06-30,C117791,RRAG,CDASHIG,2-1,,EG,RRAG_NORMALIZED,Normalized,LOCAL READING,,RR Interval Aggregate (Normalized),EGTPT,EGTPT,,,Timepoint,,4,N,text,50,,N,N,,,,,,,,,,
2026-06-30,C117791,RRAG,CDASHIG,2-1,,EG,RRAG_NORMALIZED,Normalized,LOCAL READING,,RR Interval Aggregate (Normalized),EGTEST,EGTEST,,,Test,,5,Y,text,40,,N,N,,C71152,EGTEST,,,,"RR Interval, Aggregate",C117791,EGTEST;EGTESTCD,"EGTEST = RR Interval, Aggregate"
2026-06-30,C117791,RRAG,CDASHIG,2-1,,EG,RRAG_NORMALIZED,Normalized,LOCAL READING,,RR Interval Aggregate (Normalized),EGORRES,EGORRES,C42574,,Result,,6,Y,integer,3,,N,N,,,,,,,,,EGORRES;EGTEST;EGTESTCD,EGORRES when EGTESTCD = RRAG
2026-06-30,C117791,RRAG,CDASHIG,2-1,,EG,RRAG_NORMALIZED,Normalized,LOCAL READING,,RR Interval Aggregate (Normalized),EGORRESU,EGORRESU,C42574,,Unit,,7,Y,text,50,,N,N,,C71620,UNIT,,,,ms,C41140,EGORRESU;EGTEST;EGTESTCD,EGORRESU when EGTESTCD = RRAG
2026-06-30,C111312,SNRARRY,CDASHIG,2-1,,EG,SNRARRY_DENORMALIZED,Denormalized,LOCAL READING,,Sinus Node Rhythm and Arrhythmia ECG Assessment (Denormalized),EGDAT,EGDAT,C82515,,Date of Assessment,,1,N,date,10,,N,N,,,,,,,,,EGDTC,EGDTC
2026-06-30,C111312,SNRARRY,CDASHIG,2-1,,EG,SNRARRY_DENORMALIZED,Denormalized,LOCAL READING,,Sinus Node Rhythm and Arrhythmia ECG Assessment (Denormalized),EGMETHOD,EGMETHOD,C82535,,Method,,2,Y,text,50,,N,N,,C71151,EGMETHOD,,,,12 LEAD STANDARD,C71102,EGMETHOD,EGMETHOD = 12 LEAD STANDARD
2026-06-30,C111312,SNRARRY,CDASHIG,2-1,,EG,SNRARRY_DENORMALIZED,Denormalized,LOCAL READING,,Sinus Node Rhythm and Arrhythmia ECG Assessment (Denormalized),EGPOS,EGPOS,C62164,,Position,,3,N,text,50,,N,N,,C71148,POSITION,SEMI-FOWLERS;SEMI-RECUMBENT;SITTING;STANDING;SUPINE,Semi-Fowlers;Semi-Recumbent;Sitting;Standing;Supine,Single,,,EGPOS,EGPOS
2026-06-30,C111312,SNRARRY,CDASHIG,2-1,,EG,SNRARRY_DENORMALIZED,Denormalized,LOCAL READING,,Sinus Node Rhythm and Arrhythmia ECG Assessment (Denormalized),SNRARRY_EGORRES,EGORRES,C70856,,Result,,4,Y,text,200,,N,N,,,,,,,,,EGORRES;EGTEST;EGTESTCD,EGORRES when EGTESTCD = SNRARRY
2026-06-30,C111312,SNRARRY,CDASHIG,2-1,,EG,SNRARRY_NORMALIZED,Normalized,LOCAL READING,,Sinus Node Rhythm and Arrhythmia ECG Assessment (Normalized),EGDAT,EGDAT,C82515,,Date of Assessment,,1,N,date,10,,N,N,,,,,,,,,EGDTC,EGDTC
2026-06-30,C111312,SNRARRY,CDASHIG,2-1,,EG,SNRARRY_NORMALIZED,Normalized,LOCAL READING,,Sinus Node Rhythm and Arrhythmia ECG Assessment (Normalized),EGMETHOD,EGMETHOD,C82535,,Method,,2,Y,text,50,,N,N,,C71151,EGMETHOD,,,,12 LEAD STANDARD,C71102,EGMETHOD,EGMETHOD = 12 LEAD STANDARD
2026-06-30,C111312,SNRARRY,CDASHIG,2-1,,EG,SNRARRY_NORMALIZED,Normalized,LOCAL READING,,Sinus Node Rhythm and Arrhythmia ECG Assessment (Normalized),EGPOS,EGPOS,C62164,,Position,,3,N,text,50,,N,N,,C71148,POSITION,SEMI-FOWLERS;SEMI-RECUMBENT;SITTING;STANDING;SUPINE,Semi-Fowlers;Semi-Recumbent;Sitting;Standing;Supine,Single,,,EGPOS,EGPOS
2026-06-30,C111312,SNRARRY,CDASHIG,2-1,,EG,SNRARRY_NORMALIZED,Normalized,LOCAL READING,,Sinus Node Rhythm and Arrhythmia ECG Assessment (Normalized),EGTPT,EGTPT,,,Timepoint,,4,N,text,50,,N,N,,,,,,,,,,
2026-06-30,C111312,SNRARRY,CDASHIG,2-1,,EG,SNRARRY_NORMALIZED,Normalized,LOCAL READING,,Sinus Node Rhythm and Arrhythmia ECG Assessment (Normalized),EGTEST,EGTEST,,,Test,,5,Y,text,40,,N,N,,C71152,EGTEST,,,,Sinus Node Rhythms and Arrhythmias,C111312,EGTEST;EGTESTCD,EGTEST = Sinus Node Rhythms and Arrhythmias
2026-06-30,C111312,SNRARRY,CDASHIG,2-1,,EG,SNRARRY_NORMALIZED,Normalized,LOCAL READING,,Sinus Node Rhythm and Arrhythmia ECG Assessment (Normalized),EGORRES,EGORRES,C70856,,Result,,6,Y,text,200,,N,N,,,,,,,,,EGORRES;EGTEST;EGTESTCD,EGORRES when EGTESTCD = SNRARRY
2026-06-30,C111320,SPRARRY,CDASHIG,2-1,,EG,SPRARRY_DENORMALIZED,Denormalized,LOCAL READING,,Supraventricular Arrhythmia ECG Assessment (Denormalized),EGDAT,EGDAT,C82515,,Date of Assessment,,1,N,date,10,,N,N,,,,,,,,,EGDTC,EGDTC
2026-06-30,C111320,SPRARRY,CDASHIG,2-1,,EG,SPRARRY_DENORMALIZED,Denormalized,LOCAL READING,,Supraventricular Arrhythmia ECG Assessment (Denormalized),EGMETHOD,EGMETHOD,C82535,,Method,,2,Y,text,50,,N,N,,C71151,EGMETHOD,,,,12 LEAD STANDARD,C71102,EGMETHOD,EGMETHOD = 12 LEAD STANDARD
2026-06-30,C111320,SPRARRY,CDASHIG,2-1,,EG,SPRARRY_DENORMALIZED,Denormalized,LOCAL READING,,Supraventricular Arrhythmia ECG Assessment (Denormalized),EGPOS,EGPOS,C62164,,Position,,3,N,text,50,,N,N,,C71148,POSITION,SEMI-FOWLERS;SEMI-RECUMBENT;SITTING;STANDING;SUPINE,Semi-Fowlers;Semi-Recumbent;Sitting;Standing;Supine,Single,,,EGPOS,EGPOS
2026-06-30,C111320,SPRARRY,CDASHIG,2-1,,EG,SPRARRY_DENORMALIZED,Denormalized,LOCAL READING,,Supraventricular Arrhythmia ECG Assessment (Denormalized),SPRARRY_EGORRES,EGORRES,C70856,,Result,,4,Y,text,200,,N,N,,,,,,,,,EGORRES;EGTEST;EGTESTCD,EGORRES when EGTESTCD = SPRARRY
2026-06-30,C111320,SPRARRY,CDASHIG,2-1,,EG,SPRARRY_NORMALIZED,Normalized,LOCAL READING,,Supraventricular Arrhythmia ECG Assessment (Normalized),EGDAT,EGDAT,C82515,,Date of Assessment,,1,N,date,10,,N,N,,,,,,,,,EGDTC,EGDTC
2026-06-30,C111320,SPRARRY,CDASHIG,2-1,,EG,SPRARRY_NORMALIZED,Normalized,LOCAL READING,,Supraventricular Arrhythmia ECG Assessment (Normalized),EGMETHOD,EGMETHOD,C82535,,Method,,2,Y,text,50,,N,N,,C71151,EGMETHOD,,,,12 LEAD STANDARD,C71102,EGMETHOD,EGMETHOD = 12 LEAD STANDARD
2026-06-30,C111320,SPRARRY,CDASHIG,2-1,,EG,SPRARRY_NORMALIZED,Normalized,LOCAL READING,,Supraventricular Arrhythmia ECG Assessment (Normalized),EGPOS,EGPOS,C62164,,Position,,3,N,text,50,,N,N,,C71148,POSITION,SEMI-FOWLERS;SEMI-RECUMBENT;SITTING;STANDING;SUPINE,Semi-Fowlers;Semi-Recumbent;Sitting;Standing;Supine,Single,,,EGPOS,EGPOS
2026-06-30,C111320,SPRARRY,CDASHIG,2-1,,EG,SPRARRY_NORMALIZED,Normalized,LOCAL READING,,Supraventricular Arrhythmia ECG Assessment (Normalized),EGTPT,EGTPT,,,Timepoint,,4,N,text,50,,N,N,,,,,,,,,,
2026-06-30,C111320,SPRARRY,CDASHIG,2-1,,EG,SPRARRY_NORMALIZED,Normalized,LOCAL READING,,Supraventricular Arrhythmia ECG Assessment (Normalized),EGTEST,EGTEST,,,Test,,5,Y,text,40,,N,N,,C71152,EGTEST,,,,Supraventricular Arrhythmias,C111320,EGTEST;EGTESTCD,EGTEST = Supraventricular Arrhythmias
2026-06-30,C111320,SPRARRY,CDASHIG,2-1,,EG,SPRARRY_NORMALIZED,Normalized,LOCAL READING,,Supraventricular Arrhythmia ECG Assessment (Normalized),EGORRES,EGORRES,C70856,,Result,,6,Y,text,200,,N,N,,,,,,,,,EGORRES;EGTEST;EGTESTCD,EGORRES when EGTESTCD = SPRARRY
2026-06-30,C111321,SPRTARRY,CDASHIG,2-1,,EG,SPRTARRY_DENORMALIZED,Denormalized,LOCAL READING,,Supraventricular Tachyarrhythmia ECG Assessment (Denormalized),EGDAT,EGDAT,C82515,,Date of Assessment,,1,N,date,10,,N,N,,,,,,,,,EGDTC,EGDTC
2026-06-30,C111321,SPRTARRY,CDASHIG,2-1,,EG,SPRTARRY_DENORMALIZED,Denormalized,LOCAL READING,,Supraventricular Tachyarrhythmia ECG Assessment (Denormalized),EGMETHOD,EGMETHOD,C82535,,Method,,2,Y,text,50,,N,N,,C71151,EGMETHOD,,,,12 LEAD STANDARD,C71102,EGMETHOD,EGMETHOD = 12 LEAD STANDARD
2026-06-30,C111321,SPRTARRY,CDASHIG,2-1,,EG,SPRTARRY_DENORMALIZED,Denormalized,LOCAL READING,,Supraventricular Tachyarrhythmia ECG Assessment (Denormalized),EGPOS,EGPOS,C62164,,Position,,3,N,text,50,,N,N,,C71148,POSITION,SEMI-FOWLERS;SEMI-RECUMBENT;SITTING;STANDING;SUPINE,Semi-Fowlers;Semi-Recumbent;Sitting;Standing;Supine,Single,,,EGPOS,EGPOS
2026-06-30,C111321,SPRTARRY,CDASHIG,2-1,,EG,SPRTARRY_DENORMALIZED,Denormalized,LOCAL READING,,Supraventricular Tachyarrhythmia ECG Assessment (Denormalized),SPRTARRY_EGORRES,EGORRES,C70856,,Result,,4,Y,text,200,,N,N,,,,,,,,,EGORRES;EGTEST;EGTESTCD,EGORRES when EGTESTCD = SPRTARRY
2026-06-30,C111321,SPRTARRY,CDASHIG,2-1,,EG,SPRTARRY_NORMALIZED,Normalized,LOCAL READING,,Supraventricular Tachyarrhythmia ECG Assessment (Normalized),EGDAT,EGDAT,C82515,,Date of Assessment,,1,N,date,10,,N,N,,,,,,,,,EGDTC,EGDTC
2026-06-30,C111321,SPRTARRY,CDASHIG,2-1,,EG,SPRTARRY_NORMALIZED,Normalized,LOCAL READING,,Supraventricular Tachyarrhythmia ECG Assessment (Normalized),EGMETHOD,EGMETHOD,C82535,,Method,,2,Y,text,50,,N,N,,C71151,EGMETHOD,,,,12 LEAD STANDARD,C71102,EGMETHOD,EGMETHOD = 12 LEAD STANDARD
2026-06-30,C111321,SPRTARRY,CDASHIG,2-1,,EG,SPRTARRY_NORMALIZED,Normalized,LOCAL READING,,Supraventricular Tachyarrhythmia ECG Assessment (Normalized),EGPOS,EGPOS,C62164,,Position,,3,N,text,50,,N,N,,C71148,POSITION,SEMI-FOWLERS;SEMI-RECUMBENT;SITTING;STANDING;SUPINE,Semi-Fowlers;Semi-Recumbent;Sitting;Standing;Supine,Single,,,EGPOS,EGPOS
2026-06-30,C111321,SPRTARRY,CDASHIG,2-1,,EG,SPRTARRY_NORMALIZED,Normalized,LOCAL READING,,Supraventricular Tachyarrhythmia ECG Assessment (Normalized),EGTPT,EGTPT,,,Timepoint,,4,N,text,50,,N,N,,,,,,,,,,
2026-06-30,C111321,SPRTARRY,CDASHIG,2-1,,EG,SPRTARRY_NORMALIZED,Normalized,LOCAL READING,,Supraventricular Tachyarrhythmia ECG Assessment (Normalized),EGTEST,EGTEST,,,Test,,5,Y,text,40,,N,N,,C71152,EGTEST,,,,Supraventricular Tachyarrhythmias,C111321,EGTEST;EGTESTCD,EGTEST = Supraventricular Tachyarrhythmias
2026-06-30,C111321,SPRTARRY,CDASHIG,2-1,,EG,SPRTARRY_NORMALIZED,Normalized,LOCAL READING,,Supraventricular Tachyarrhythmia ECG Assessment (Normalized),EGORRES,EGORRES,C70856,,Result,,6,Y,text,200,,N,N,,,,,,,,,EGORRES;EGTEST;EGTESTCD,EGORRES when EGTESTCD = SPRTARRY
2026-06-30,C111363,STSTWUW,CDASHIG,2-1,,EG,STSTWUW_DENORMALIZED,Denormalized,LOCAL READING,,"ST Segment, T wave, and U wave ECG Assessment (Denormalized)",EGDAT,EGDAT,C82515,,Date of Assessment,,1,N,date,10,,N,N,,,,,,,,,EGDTC,EGDTC
2026-06-30,C111363,STSTWUW,CDASHIG,2-1,,EG,STSTWUW_DENORMALIZED,Denormalized,LOCAL READING,,"ST Segment, T wave, and U wave ECG Assessment (Denormalized)",EGMETHOD,EGMETHOD,C82535,,Method,,2,Y,text,50,,N,N,,C71151,EGMETHOD,,,,12 LEAD STANDARD,C71102,EGMETHOD,EGMETHOD = 12 LEAD STANDARD
2026-06-30,C111363,STSTWUW,CDASHIG,2-1,,EG,STSTWUW_DENORMALIZED,Denormalized,LOCAL READING,,"ST Segment, T wave, and U wave ECG Assessment (Denormalized)",EGPOS,EGPOS,C62164,,Position,,3,N,text,50,,N,N,,C71148,POSITION,SEMI-FOWLERS;SEMI-RECUMBENT;SITTING;STANDING;SUPINE,Semi-Fowlers;Semi-Recumbent;Sitting;Standing;Supine,Single,,,EGPOS,EGPOS
2026-06-30,C111363,STSTWUW,CDASHIG,2-1,,EG,STSTWUW_DENORMALIZED,Denormalized,LOCAL READING,,"ST Segment, T wave, and U wave ECG Assessment (Denormalized)",STSTWUW_EGORRES,EGORRES,C70856,,Result,,4,Y,text,200,,N,N,,,,,,,,,EGORRES;EGTEST;EGTESTCD,EGORRES when EGTESTCD = STSTWUW
2026-06-30,C111363,STSTWUW,CDASHIG,2-1,,EG,STSTWUW_NORMALIZED,Normalized,LOCAL READING,,"ST Segment, T wave, and U wave ECG Assessment (Normalized)",EGDAT,EGDAT,C82515,,Date of Assessment,,1,N,date,10,,N,N,,,,,,,,,EGDTC,EGDTC
2026-06-30,C111363,STSTWUW,CDASHIG,2-1,,EG,STSTWUW_NORMALIZED,Normalized,LOCAL READING,,"ST Segment, T wave, and U wave ECG Assessment (Normalized)",EGMETHOD,EGMETHOD,C82535,,Method,,2,Y,text,50,,N,N,,C71151,EGMETHOD,,,,12 LEAD STANDARD,C71102,EGMETHOD,EGMETHOD = 12 LEAD STANDARD
2026-06-30,C111363,STSTWUW,CDASHIG,2-1,,EG,STSTWUW_NORMALIZED,Normalized,LOCAL READING,,"ST Segment, T wave, and U wave ECG Assessment (Normalized)",EGPOS,EGPOS,C62164,,Position,,3,N,text,50,,N,N,,C71148,POSITION,SEMI-FOWLERS;SEMI-RECUMBENT;SITTING;STANDING;SUPINE,Semi-Fowlers;Semi-Recumbent;Sitting;Standing;Supine,Single,,,EGPOS,EGPOS
2026-06-30,C111363,STSTWUW,CDASHIG,2-1,,EG,STSTWUW_NORMALIZED,Normalized,LOCAL READING,,"ST Segment, T wave, and U wave ECG Assessment (Normalized)",EGTPT,EGTPT,,,Timepoint,,4,N,text,50,,N,N,,,,,,,,,,
2026-06-30,C111363,STSTWUW,CDASHIG,2-1,,EG,STSTWUW_NORMALIZED,Normalized,LOCAL READING,,"ST Segment, T wave, and U wave ECG Assessment (Normalized)",EGTEST,EGTEST,,,Test,,5,Y,text,40,,N,N,,C71152,EGTEST,,,,"ST Segment, T wave, and U wave",C111363,EGTEST;EGTESTCD,"EGTEST = ST Segment, T wave, and U wave"
2026-06-30,C111363,STSTWUW,CDASHIG,2-1,,EG,STSTWUW_NORMALIZED,Normalized,LOCAL READING,,"ST Segment, T wave, and U wave ECG Assessment (Normalized)",EGORRES,EGORRES,C70856,,Result,,6,Y,text,200,,N,N,,,,,,,,,EGORRES;EGTEST;EGTESTCD,EGORRES when EGTESTCD = STSTWUW
2026-06-30,C117807,TECHQUAL,CDASHIG,2-1,,EG,TECHQUAL_DENORMALIZED,Denormalized,LOCAL READING,,ECG Technical Quality (Denormalized),EGDAT,EGDAT,C82515,,Date of Assessment,,1,N,date,10,,N,N,,,,,,,,,EGDTC,EGDTC
2026-06-30,C117807,TECHQUAL,CDASHIG,2-1,,EG,TECHQUAL_DENORMALIZED,Denormalized,LOCAL READING,,ECG Technical Quality (Denormalized),EGMETHOD,EGMETHOD,C82535,,Method,,2,Y,text,50,,N,N,,C71151,EGMETHOD,,,,12 LEAD STANDARD,C71102,EGMETHOD,EGMETHOD = 12 LEAD STANDARD
2026-06-30,C117807,TECHQUAL,CDASHIG,2-1,,EG,TECHQUAL_DENORMALIZED,Denormalized,LOCAL READING,,ECG Technical Quality (Denormalized),TECHQUAL_EGORRES,EGORRES,C114120,How was the technical quality of the assessment?,,,3,Y,text,200,,N,N,,,,,,,,,EGORRES;EGTEST;EGTESTCD,EGORRES when EGTESTCD = TECHQUAL
2026-06-30,C117807,TECHQUAL,CDASHIG,2-1,,EG,TECHQUAL_DENORMALIZED,Denormalized,LOCAL READING,,ECG Technical Quality (Denormalized),TECHQUAL_EGEVAL,EGEVAL,C51824,,Evaluator,,4,Y,text,100,,N,N,,C78735,EVAL,ADJUDICATION COMMITTEE;INDEPENDENT ASSESSOR;INVESTIGATOR;VENDOR,Adjudication Committee;Independent Assessor;Investigator;Vendor,Single,,,EGEVAL,EGEVAL
2026-06-30,C111330,VTARRY,CDASHIG,2-1,,EG,VTARRY_DENORMALIZED,Denormalized,LOCAL READING,,Ventricular Arrhythmia ECG Assessment (Denormalized),EGDAT,EGDAT,C82515,,Date of Assessment,,1,N,date,10,,N,N,,,,,,,,,EGDTC,EGDTC
2026-06-30,C111330,VTARRY,CDASHIG,2-1,,EG,VTARRY_DENORMALIZED,Denormalized,LOCAL READING,,Ventricular Arrhythmia ECG Assessment (Denormalized),EGMETHOD,EGMETHOD,C82535,,Method,,2,Y,text,50,,N,N,,C71151,EGMETHOD,,,,12 LEAD STANDARD,C71102,EGMETHOD,EGMETHOD = 12 LEAD STANDARD
2026-06-30,C111330,VTARRY,CDASHIG,2-1,,EG,VTARRY_DENORMALIZED,Denormalized,LOCAL READING,,Ventricular Arrhythmia ECG Assessment (Denormalized),EGPOS,EGPOS,C62164,,Position,,3,N,text,50,,N,N,,C71148,POSITION,SEMI-FOWLERS;SEMI-RECUMBENT;SITTING;STANDING;SUPINE,Semi-Fowlers;Semi-Recumbent;Sitting;Standing;Supine,Single,,,EGPOS,EGPOS
2026-06-30,C111330,VTARRY,CDASHIG,2-1,,EG,VTARRY_DENORMALIZED,Denormalized,LOCAL READING,,Ventricular Arrhythmia ECG Assessment (Denormalized),VTARRY_EGORRES,EGORRES,C70856,,Result,,6,Y,text,200,,N,N,,,,,,,,,EGORRES;EGTEST;EGTESTCD,EGORRES when EGTESTCD = VTARRY
2026-06-30,C111330,VTARRY,CDASHIG,2-1,,EG,VTARRY_NORMALIZED,Normalized,LOCAL READING,,Ventricular Arrhythmia ECG Assessment (Normalized),EGDAT,EGDAT,C82515,,Date of Assessment,,1,N,date,10,,N,N,,,,,,,,,EGDTC,EGDTC
2026-06-30,C111330,VTARRY,CDASHIG,2-1,,EG,VTARRY_NORMALIZED,Normalized,LOCAL READING,,Ventricular Arrhythmia ECG Assessment (Normalized),EGMETHOD,EGMETHOD,C82535,,Method,,2,Y,text,50,,N,N,,C71151,EGMETHOD,,,,12 LEAD STANDARD,C71102,EGMETHOD,EGMETHOD = 12 LEAD STANDARD
2026-06-30,C111330,VTARRY,CDASHIG,2-1,,EG,VTARRY_NORMALIZED,Normalized,LOCAL READING,,Ventricular Arrhythmia ECG Assessment (Normalized),EGPOS,EGPOS,C62164,,Position,,3,N,text,50,,N,N,,C71148,POSITION,SEMI-FOWLERS;SEMI-RECUMBENT;SITTING;STANDING;SUPINE,Semi-Fowlers;Semi-Recumbent;Sitting;Standing;Supine,Single,,,EGPOS,EGPOS
2026-06-30,C111330,VTARRY,CDASHIG,2-1,,EG,VTARRY_NORMALIZED,Normalized,LOCAL READING,,Ventricular Arrhythmia ECG Assessment (Normalized),EGTPT,EGTPT,,,Timepoint,,4,N,text,50,,N,N,,,,,,,,,,
2026-06-30,C111330,VTARRY,CDASHIG,2-1,,EG,VTARRY_NORMALIZED,Normalized,LOCAL READING,,Ventricular Arrhythmia ECG Assessment (Normalized),EGTEST,EGTEST,,,Test,,5,Y,text,40,,N,N,,C71152,EGTEST,,,,Ventricular Arrhythmias,C111330,EGTEST;EGTESTCD,EGTEST = Ventricular Arrhythmias
2026-06-30,C111330,VTARRY,CDASHIG,2-1,,EG,VTARRY_NORMALIZED,Normalized,LOCAL READING,,Ventricular Arrhythmia ECG Assessment (Normalized),EGORRES,EGORRES,C70856,,Result,,6,Y,text,200,,N,N,,,,,,,,,EGORRES;EGTEST;EGTESTCD,EGORRES when EGTESTCD = VTARRY
2026-06-30,C111331,VTTARRY,CDASHIG,2-1,,EG,VTTARRY_DENORMALIZED,Denormalized,LOCAL READING,,Ventricular Tachyarrhythmia ECG Assessment (Denormalized),EGDAT,EGDAT,C82515,,Date of Assessment,,1,N,date,10,,N,N,,,,,,,,,EGDTC,EGDTC
2026-06-30,C111331,VTTARRY,CDASHIG,2-1,,EG,VTTARRY_DENORMALIZED,Denormalized,LOCAL READING,,Ventricular Tachyarrhythmia ECG Assessment (Denormalized),EGMETHOD,EGMETHOD,C82535,,Method,,2,Y,text,50,,N,N,,C71151,EGMETHOD,,,,12 LEAD STANDARD,C71102,EGMETHOD,EGMETHOD = 12 LEAD STANDARD
2026-06-30,C111331,VTTARRY,CDASHIG,2-1,,EG,VTTARRY_DENORMALIZED,Denormalized,LOCAL READING,,Ventricular Tachyarrhythmia ECG Assessment (Denormalized),EGPOS,EGPOS,C62164,,Position,,3,N,text,50,,N,N,,C71148,POSITION,SEMI-FOWLERS;SEMI-RECUMBENT;SITTING;STANDING;SUPINE,Semi-Fowlers;Semi-Recumbent;Sitting;Standing;Supine,Single,,,EGPOS,EGPOS
2026-06-30,C111331,VTTARRY,CDASHIG,2-1,,EG,VTTARRY_DENORMALIZED,Denormalized,LOCAL READING,,Ventricular Tachyarrhythmia ECG Assessment (Denormalized),VTTARRY_EGORRES,EGORRES,C70856,,Result,,6,Y,text,200,,N,N,,,,,,,,,EGORRES;EGTEST;EGTESTCD,EGORRES when EGTESTCD = VTTARRY
2026-06-30,C111331,VTTARRY,CDASHIG,2-1,,EG,VTTARRY_NORMALIZED,Normalized,LOCAL READING,,Ventricular Tachyarrhythmia ECG Assessment (Normalized),EGDAT,EGDAT,C82515,,Date of Assessment,,1,N,date,10,,N,N,,,,,,,,,EGDTC,EGDTC
2026-06-30,C111331,VTTARRY,CDASHIG,2-1,,EG,VTTARRY_NORMALIZED,Normalized,LOCAL READING,,Ventricular Tachyarrhythmia ECG Assessment (Normalized),EGMETHOD,EGMETHOD,C82535,,Method,,2,Y,text,50,,N,N,,C71151,EGMETHOD,,,,12 LEAD STANDARD,C71102,EGMETHOD,EGMETHOD = 12 LEAD STANDARD
2026-06-30,C111331,VTTARRY,CDASHIG,2-1,,EG,VTTARRY_NORMALIZED,Normalized,LOCAL READING,,Ventricular Tachyarrhythmia ECG Assessment (Normalized),EGPOS,EGPOS,C62164,,Position,,3,N,text,50,,N,N,,C71148,POSITION,SEMI-FOWLERS;SEMI-RECUMBENT;SITTING;STANDING;SUPINE,Semi-Fowlers;Semi-Recumbent;Sitting;Standing;Supine,Single,,,EGPOS,EGPOS
2026-06-30,C111331,VTTARRY,CDASHIG,2-1,,EG,VTTARRY_NORMALIZED,Normalized,LOCAL READING,,Ventricular Tachyarrhythmia ECG Assessment (Normalized),EGTPT,EGTPT,,,Timepoint,,4,N,text,50,,N,N,,,,,,,,,,
2026-06-30,C111331,VTTARRY,CDASHIG,2-1,,EG,VTTARRY_NORMALIZED,Normalized,LOCAL READING,,Ventricular Tachyarrhythmia ECG Assessment (Normalized),EGTEST,EGTEST,,,Test,,5,Y,text,40,,N,N,,C71152,EGTEST,,,,Ventricular Tachyarrhythmias,C111331,EGTEST;EGTESTCD,EGTEST = Ventricular Tachyarrhythmias
2026-06-30,C111331,VTTARRY,CDASHIG,2-1,,EG,VTTARRY_NORMALIZED,Normalized,LOCAL READING,,Ventricular Tachyarrhythmia ECG Assessment (Normalized),EGORRES,EGORRES,C70856,,Result,,6,Y,text,200,,N,N,,,,,,,,,EGORRES;EGTEST;EGTESTCD,EGORRES when EGTESTCD = VTTARRY
2026-06-30,C100762,,CDASHIG,2-3,,FT,ADASCOG,,,360,Alzheimer's Disease Assessment Scale-Cognitive CDISC Version Functional Test,ADASCOG_FTCAT,FTCAT,C25372,,Category of Functional Test,,1,N,text,100,,Y,N,,C115304,FTCAT,,,,ADAS-COG,C100191,FTCAT,FTCAT = ADAS-COG
2026-06-30,C100762,,CDASHIG,2-3,,FT,ADASCOG,,,360,Alzheimer's Disease Assessment Scale-Cognitive CDISC Version Functional Test,ADASCOG_FTPERF,FTPERF,C82525,Was the ADAS-COG Functional Test performed?,,,2,N,text,1,,N,N,,C66742,NY,N;Y,No;Yes,Single,,,FTSTAT,[NOT SUBMITTED]; FTSTAT = NOT DONE
2026-06-30,C100762,,CDASHIG,2-3,,FT,ADASCOG,,,360,Alzheimer's Disease Assessment Scale-Cognitive CDISC Version Functional Test,ADASCOG_FTDAT,FTDTC,C82515,,Date of Assessment,,3,Y,date,10,,N,N,,,,,,,,,FTDTC,FTDTC
2026-06-30,C100762,,CDASHIG,2-3,,FT,ADASCOG,,,360,Alzheimer's Disease Assessment Scale-Cognitive CDISC Version Functional Test,ADASCOG_FTREASND,FTREASND,C82556,"If any item(s) are incomplete or not done, please specify reason:",,,4,N,text,200,,N,N,,,,Participant refused;Participant unable for physical reasons;Participant unable for cognitive reasons;Not done for reasons other than physical/cognitive,Participant refused;Participant unable for physical reasons;Participant unable for cognitive reasons;Not done for reasons other than physical/cognitive,Single,,,FTREASND,FTREASND
2026-06-30,C100209,ADCCMD,CDASHIG,2-3,,FT,ADCCMD,,,360,CDISC ADAS-Cog - Commands Summary Score,ADCCMD_FTSCAT,FTSCAT,C25692,,Subcategory,,1,N,text,100,,Y,N,,,,,,,Commands,,FTSCAT,FTSCAT = Commands
2026-06-30,C100209,ADCCMD,CDASHIG,2-3,,FT,ADCCMD,,,360,CDISC ADAS-Cog - Commands Summary Score,ADCCMD_FTORRES,FTORRES,C91106,,COMMANDS,,2,Y,text,5,2.0,N,N,,,,all commands correct;1 command incorrect;2 commands incorrect;3 commands incorrect;4 commands incorrect;all 5 commands incorrect,All commands correct;1 command incorrect;2 commands incorrect;3 commands incorrect;4 commands incorrect;all 5 commands incorrect,Single,,,FTORRES;FTTESTCD;FTTEST,FTORRES when FTTESTCD = ADCCMD
2026-06-30,C100209,ADCCMD,CDASHIG,2-3,,FT,ADCCMD,,,360,CDISC ADAS-Cog - Commands Summary Score,ADCCMD_FTREASND,FTREASND,C82556,"If any item(s) are incomplete or not done, please specify reason:",,,3,N,text,200,,N,N,,,,Participant refused;Participant unable for physical reasons;Participant unable for cognitive reasons;Not done for reasons other than physical/cognitive,Participant refused;Participant unable for physical reasons;Participant unable for cognitive reasons;Not done for reasons other than physical/cognitive,Single,,,FTREASND,FTREASND
2026-06-30,C100278,ADCCMP,CDASHIG,2-3,,FT,ADCCMP,,,360,CDISC ADAS-Cog - Comprehension,ADCCMP_FTSCAT,FTSCAT,C25692,,Subcategory,,1,N,text,100,,Y,N,,,,,,,Degree of Impairment,,FTSCAT,FTSCAT = Degree of Impairment
2026-06-30,C100278,ADCCMP,CDASHIG,2-3,,FT,ADCCMP,,,360,CDISC ADAS-Cog - Comprehension,ADCCMP_FTORRES,FTORRES,C91106,,COMPREHENSION,,2,Y,text,5,2.0,N,N,,,,"No evidence of poor comprehension;Very mild - 1 or 2 instances of misunderstanding;Mild - 3-5 instances of misunderstanding;Moderate - requires several repetitions and rephrasings;Moderately severe - patient only occasionally responds correctly (i.e., yes/no questions);Severe - patient rarely responds to questions appropriately, not due to poverty of speech","No evidence of poor comprehension;Very mild - 1 or 2 instances of misunderstanding;Mild - 3-5 instances of misunderstanding;Moderate - requires several repetitions and rephrasings;Moderately severe - patient only occasionally responds correctly (i.e., yes/no questions);Severe - patient rarely responds to questions appropriately, not due to poverty of speech",Single,,,FTORRES;FTTESTCD;FTTEST,FTORRES when FTTESTCD = ADCCMP
2026-06-30,C100279,ADCCON,CDASHIG,2-3,,FT,ADCCON,,,360,CDISC ADAS-Cog - Concentration/Distractibility,ADCCON_FTSCAT,FTSCAT,C25692,,Subcategory,,1,N,text,100,,Y,N,,,,,,,Degree of Impairment,,FTSCAT,FTSCAT = Degree of Impairment
2026-06-30,C100279,ADCCON,CDASHIG,2-3,,FT,ADCCON,,,360,CDISC ADAS-Cog - Concentration/Distractibility,ADCCON_FTORRES,FTORRES,C91106,,CONCENTRATION/DISTRACTABILITY,,2,Y,text,5,2.0,N,N,,,,"No evidence of poor concentration or distractibility;Very mild - one instance of poor concentration;Mild - 2-3 instances of poor concentration/distractibility, signs of restlessness and inattentiveness;Moderate - 4-5 instances during interview;Moderately severe - poor concentration/distractibility throughout much of interview;Severe - extreme difficulty in concentration and extremely distractible, unable to complete tasks","No evidence of poor concentration or distractibility;Very mild - one instance of poor concentration;Mild - 2-3 instances of poor concentration/distractibility, signs of restlessness and inattentiveness;Moderate - 4-5 instances during interview;Moderately severe - poor concentration/distractibility throughout much of interview;Severe - extreme difficulty in concentration and extremely distractible, unable to complete tasks",Single,,,FTORRES;FTTESTCD;FTTEST,FTORRES when FTTESTCD = ADCCON
2026-06-30,C100279,ADCCON,CDASHIG,2-3,,FT,ADCCON,,,360,CDISC ADAS-Cog - Concentration/Distractibility,ADCCON_FTREASND,FTREASND,C82556,"If any item(s) are incomplete or not done, please specify reason:",,,3,N,text,200,,N,N,,,,Participant refused;Participant unable for physical reasons;Participant unable for cognitive reasons;Not done for reasons other than physical/cognitive,Participant refused;Participant unable for physical reasons;Participant unable for cognitive reasons;Not done for reasons other than physical/cognitive,Single,,,FTREASND,FTREASND
2026-06-30,C100226,ADCCP,CDASHIG,2-3,,FT,ADCCP,,,360,CDISC ADAS-Cog - Constructional Praxis Summary Score,ADCCP_FTSCAT,FTSCAT,C25692,,Subcategory,,1,N,text,100,,Y,N,,,,,,,Constructional Praxis,,FTSCAT,FTSCAT = Constructional Praxis
2026-06-30,C100226,ADCCP,CDASHIG,2-3,,FT,ADCCP,,,360,CDISC ADAS-Cog - Constructional Praxis Summary Score,ADCCP_FTORRES,FTORRES,C91106,,CONSTRUCTIONAL PRAXIS,,2,Y,text,5,2.0,N,N,,,,"all 4 drawings correct;1 form drawn incorrectly;2 forms drawn incorrectly;3 forms drawn incorrectly;4 forms drawn incorrectly (but one or more side/section of at least one shape drawn);No figures drawn, no recognizable attempt at drawing any side/section of any figure","All 4 drawings correct;1 form drawn incorrectly;2 forms drawn incorrectly;3 forms drawn incorrectly;4 forms drawn incorrectly (but one or more side/section of at least one shape drawn);No figures drawn, no recognizable attempt at drawing any side/section of any figure",Single,,,FTORRES;FTTESTCD;FTTEST,FTORRES when FTTESTCD = ADCCP
2026-06-30,C100226,ADCCP,CDASHIG,2-3,,FT,ADCCP,,,360,CDISC ADAS-Cog - Constructional Praxis Summary Score,ADCCP_FTREASND,FTREASND,C82556,"If any item(s) are incomplete or not done, please specify reason:",,,3,N,text,200,,N,N,,,,Participant refused;Participant unable for physical reasons;Participant unable for cognitive reasons;Not done for reasons other than physical/cognitive,Participant refused;Participant unable for physical reasons;Participant unable for cognitive reasons;Not done for reasons other than physical/cognitive,Single,,,FTREASND,FTREASND
2026-06-30,C100277,ADCDIF,CDASHIG,2-3,,FT,ADCDIF,,,360,CDISC ADAS-Cog - Word Difficulty in Spontaneous Speech,ADCDIF_FTSCAT,FTSCAT,C25692,,Subcategory,,1,N,text,100,,Y,N,,,,,,,Degree of Impairment,,FTSCAT,FTSCAT = Degree of Impairment
2026-06-30,C100277,ADCDIF,CDASHIG,2-3,,FT,ADCDIF,,,360,CDISC ADAS-Cog - Word Difficulty in Spontaneous Speech,ADCDIF_FTORRES,FTORRES,C91106,,WORD FINDING DIFFICULTY IN SPONTANEOUS SPEECH,,2,Y,text,5,2.0,N,N,,,,"No evidence of word finding difficulty in spontaneous speech;Very mild - 1 or 2 instances, not clinically significant;Mild - noticeable circumlocution or synonym substitution;Moderate - loss of words without compensation on occasion;Moderately severe - frequent loss of words without compensation;Severe - nearly total loss of content of words, speech sounds empty, 1-2 word utterances","No evidence of word finding difficulty in spontaneous speech;Very mild - 1 or 2 instances, not clinically significant;Mild - noticeable circumlocution or synonym substitution;Moderate - loss of words without compensation on occasion;Moderately severe - frequent loss of words without compensation;Severe - nearly total loss of content of words, speech sounds empty, 1-2 word utterances",Single,,,FTORRES;FTTESTCD;FTTEST,FTORRES when FTTESTCD = ADCDIF
2026-06-30,C100277,ADCDIF,CDASHIG,2-3,,FT,ADCDIF,,,360,CDISC ADAS-Cog - Word Difficulty in Spontaneous Speech,ADCDIF_FTREASND,FTREASND,C82556,"If any item(s) are incomplete or not done, please specify reason:",,,3,N,text,200,,N,N,,,,Participant refused;Participant unable for physical reasons;Participant unable for cognitive reasons;Not done for reasons other than physical/cognitive,Participant refused;Participant unable for physical reasons;Participant unable for cognitive reasons;Not done for reasons other than physical/cognitive,Single,,,FTREASND,FTREASND
2026-06-30,C100215,ADCDRL,CDASHIG,2-3,,FT,ADCDRL,,,360,CDISC ADAS-Cog - Delayed Word Recall Summary Score,ADCDRL_FTSCAT,FTSCAT,C25692,,Subcategory,,1,N,text,100,,Y,N,,,,,,,Delayed Word Recall,,FTSCAT,FTSCAT = Delayed Word Recall
2026-06-30,C100215,ADCDRL,CDASHIG,2-3,,FT,ADCDRL,,,360,CDISC ADAS-Cog - Delayed Word Recall Summary Score,ADCDRL_FTORRES,FTORRES,C91106,,DELAYED WORD RECALL,,2,Y,integer,2,,N,N,,,,0;1;2;3;4;5;6;7;8;9;10,0;1;2;3;4;5;6;7;8;9;10,Single,,,FTORRES;FTTESTCD;FTTEST,FTORRES when FTTESTCD = ADCDRL
2026-06-30,C100215,ADCDRL,CDASHIG,2-3,,FT,ADCDRL,,,360,CDISC ADAS-Cog - Delayed Word Recall Summary Score,ADCDRL_FTREASND,FTREASND,C82556,"If any item(s) are incomplete or not done, please specify reason:",,,3,N,text,200,,N,N,,,,Participant refused;Participant unable for physical reasons;Participant unable for cognitive reasons;Not done for reasons other than physical/cognitive,Participant refused;Participant unable for physical reasons;Participant unable for cognitive reasons;Not done for reasons other than physical/cognitive,Single,,,FTREASND,FTREASND
2026-06-30,C100232,ADCIP,CDASHIG,2-3,,FT,ADCIP,,,360,CDISC ADAS-Cog - Ideational Praxis Summary Score,ADCIP_FTSCAT,FTSCAT,C25692,,Subcategory,,1,N,text,100,,Y,N,,,,,,,Ideational Praxis,,FTSCAT,FTSCAT = Ideational Praxis
2026-06-30,C100232,ADCIP,CDASHIG,2-3,,FT,ADCIP,,,360,CDISC ADAS-Cog - Ideational Praxis Summary Score,ADCIP_FTORRES,FTORRES,C91106,,IDEATIONAL PRAXIS,,2,Y,text,5,2.0,N,N,,,,all components performed correctly;failure to perform 1 component;failure to perform 2 components;failure to perform 3 components;failure to perform 4 components;failure to perform 5 components,All components performed correctly;Failure to perform 1 component;Failure to perform 2 components;Failure to perform 3 components;Failure to perform 4 components;Failure to perform 5 components,Single,,,FTORRES;FTTESTCD;FTTEST,FTORRES when FTTESTCD = ADCIP
2026-06-30,C100232,ADCIP,CDASHIG,2-3,,FT,ADCIP,,,360,CDISC ADAS-Cog - Ideational Praxis Summary Score,ADCIP_FTREASND,FTREASND,C82556,"If any item(s) are incomplete or not done, please specify reason:",,,3,N,text,200,,N,N,,,,Participant refused;Participant unable for physical reasons;Participant unable for cognitive reasons;Not done for reasons other than physical/cognitive,Participant refused;Participant unable for physical reasons;Participant unable for cognitive reasons;Not done for reasons other than physical/cognitive,Single,,,FTREASND,FTREASND
2026-06-30,C100285,ADCMZ01,CDASHIG,2-3,,FT,ADCMZ01,,,,CDISC ADAS-Cog - Executive Function Maze: Errors,ADCMZ01_FTSCAT,FTSCAT,C25692,,Subcategory,,1,N,text,100,,Y,N,,,,,,,Executive Function Maze,,FTSCAT,FTSCAT = Executive Function Maze
2026-06-30,C100285,ADCMZ01,CDASHIG,2-3,,FT,ADCMZ01,,,,CDISC ADAS-Cog - Executive Function Maze: Errors,ADCMZ01_FTORRES,FTORRES,C91106,,EXECUTIVE FUNCTION: NUMBER ERRORS,,2,Y,integer,3,,N,N,,,,0;1;2,0;1;2,Single,,,FTORRES;FTTESTCD;FTTEST,FTORRES when FTTESTCD = ADCMZ01
2026-06-30,C100285,ADCMZ01,CDASHIG,2-3,,FT,ADCMZ01,,,,CDISC ADAS-Cog - Executive Function Maze: Errors,ADCMZ01_FTREASND,FTREASND,C82556,"If any item(s) are incomplete or not done, please specify reason:",,,3,N,text,200,,N,N,,,,Participant refused;Participant unable for physical reasons;Participant unable for cognitive reasons;Not done for reasons other than physical/cognitive,Participant refused;Participant unable for physical reasons;Participant unable for cognitive reasons;Not done for reasons other than physical/cognitive,Single,,,FTREASND,FTREASND
2026-06-30,C100286,ADCMZ02,CDASHIG,2-3,,FT,ADCMZ02,,,360,CDISC ADAS-Cog - Executive Function Maze: Time,ADCMZ02_FTSCAT,FTSCAT,C25692,,Subcategory,,1,N,text,100,,Y,N,,,,,,,Executive Function Maze,,FTSCAT,FTSCAT = Executive Function Maze
2026-06-30,C100286,ADCMZ02,CDASHIG,2-3,,FT,ADCMZ02,,,360,CDISC ADAS-Cog - Executive Function Maze: Time,ADCMZ02_FTORRES,FTORRES,C91106,,EXECUTIVE FUNCTION: TIME,,2,Y,integer,3,,N,N,,,,,,,,,FTORRES;FTTESTCD;FTTEST,FTORRES when FTTESTCD = ADCMZ02
2026-06-30,C100286,ADCMZ02,CDASHIG,2-3,,FT,ADCMZ02,,,360,CDISC ADAS-Cog - Executive Function Maze: Time,ADCMZ02_FTORRESU,FTORRESU,C42574,,Unit,,3,Y,text,5,,N,N,,,,,,,s,C42535,FTORRESU;FTTESTCD;FTTEST,FTORRESU when FTTESTCD = ADCMZ02
2026-06-30,C100286,ADCMZ02,CDASHIG,2-3,,FT,ADCMZ02,,,360,CDISC ADAS-Cog - Executive Function Maze: Time,ADCMZ02_FTREASND,FTREASND,C82556,"If any item(s) are incomplete or not done, please specify reason:",,,4,N,text,200,,N,N,,,,Participant refused;Participant unable for physical reasons;Participant unable for cognitive reasons;Not done for reasons other than physical/cognitive,Participant refused;Participant unable for physical reasons;Participant unable for cognitive reasons;Not done for reasons other than physical/cognitive,Single,,,FTREASND,FTREASND
2026-06-30,C100280,ADCNC,CDASHIG,2-3,,FT,ADCNC,,,360,CDISC ADAS-Cog - Number Cancellation Summary Score,ADCNC_FTSCAT,FTSCAT,C25692,,Subcategory,,1,N,text,100,,Y,N,,,,,,,Number Cancellation,,FTSCAT,FTSCAT = Number Cancellation
2026-06-30,C100280,ADCNC,CDASHIG,2-3,,FT,ADCNC,,,360,CDISC ADAS-Cog - Number Cancellation Summary Score,ADCNC_FTORRES,FTORRES,C91106,,NUMBER CANCELLATION SUMMARY,,2,Y,integer,3,,N,N,,,,,,,,,FTORRES;FTTESTCD;FTTEST,FTORRES when FTTESTCD = ADCNC
2026-06-30,C100280,ADCNC,CDASHIG,2-3,,FT,ADCNC,,,360,CDISC ADAS-Cog - Number Cancellation Summary Score,ADCNC_FTREASND,FTREASND,C82556,"If any item(s) are incomplete or not done, please specify reason:",,,3,N,text,200,,N,N,,,,Participant refused;Participant unable for physical reasons;Participant unable for cognitive reasons;Not done for reasons other than physical/cognitive,Participant refused;Participant unable for physical reasons;Participant unable for cognitive reasons;Not done for reasons other than physical/cognitive,Single,,,FTREASND,FTREASND
2026-06-30,C100191,ADCOF,CDASHIG,2-3,,FT,ADCOF,,,360,CDISC ADAS-Cog - Naming Objects and Fingers Summary Score,ADCOF_FTSCAT,FTSCAT,C25692,,Subcategory,,1,N,text,100,,Y,N,,,,,,,Naming Objects and Fingers,,FTSCAT,FTSCAT = Naming Objects and Fingers
2026-06-30,C100191,ADCOF,CDASHIG,2-3,,FT,ADCOF,,,360,CDISC ADAS-Cog - Naming Objects and Fingers Summary Score,ADCOF_FTORRES,FTORRES,C91106,,NAMING OBJECTS AND FINGERS,,2,Y,text,5,2.0,N,N,,,,0-2 items (objects and fingers) named incorrectly;3-5 items (objects and fingers) named incorrectly;6-8 items (objects and fingers) named incorrectly;9-11 items (objects and fingers) named incorrectly;12-14 items (objects and fingers) named incorrectly;15-17 items (objects and fingers) named incorrectly,0-2 items (objects and fingers) named incorrectly;3-5 items (objects and fingers) named incorrectly;6-8 items (objects and fingers) named incorrectly;9-11 items (objects and fingers) named incorrectly;12-14 items (objects and fingers) named incorrectly;15-17 items (objects and fingers) named incorrectly,Single,,,FTORRES;FTTESTCD;FTTEST,FTORRES when FTTESTCD = ADCOF
2026-06-30,C100191,ADCOF,CDASHIG,2-3,,FT,ADCOF,,,360,CDISC ADAS-Cog - Naming Objects and Fingers Summary Score,ADCOF_FTREASND,FTREASND,C82556,"If any item(s) are incomplete or not done, please specify reason:",,,3,N,text,200,,N,N,,,,Participant refused;Participant unable for physical reasons;Participant unable for cognitive reasons;Not done for reasons other than physical/cognitive,Participant refused;Participant unable for physical reasons;Participant unable for cognitive reasons;Not done for reasons other than physical/cognitive,Single,,,FTREASND,FTREASND
2026-06-30,C100238,ADCOR,CDASHIG,2-3,,FT,ADCOR,,,360,CDISC ADAS-Cog - Orientation Summary Score,ADCOR_FTSCAT,FTSCAT,C25692,,Subcategory,,1,N,text,100,,Y,N,,,,,,,Orientation,,FTSCAT,FTSCAT = Orientation
2026-06-30,C100238,ADCOR,CDASHIG,2-3,,FT,ADCOR,,,360,CDISC ADAS-Cog - Orientation Summary Score,ADCOR_FTORRES,FTORRES,C91106,,ORIENTATION,,2,Y,integer,2,,N,N,,,,0;1;2;3;4;5;6;7;8,0;1;2;3;4;5;6;7;8,Single,,,FTORRES;FTTESTCD;FTTEST,FTORRES when FTTESTCD = ADCOR
2026-06-30,C100238,ADCOR,CDASHIG,2-3,,FT,ADCOR,,,360,CDISC ADAS-Cog - Orientation Summary Score,ADCOR_FTREASND,FTREASND,C82556,"If any item(s) are incomplete or not done, please specify reason:",,,3,N,text,200,,N,N,,,,Participant refused;Participant unable for physical reasons;Participant unable for cognitive reasons;Not done for reasons other than physical/cognitive,Participant refused;Participant unable for physical reasons;Participant unable for cognitive reasons;Not done for reasons other than physical/cognitive,Single,,,FTREASND,FTREASND
2026-06-30,C100247,ADCRG,CDASHIG,2-3,,FT,ADCRG,,,360,CDISC ADAS-Cog - Word Recognition Summary Score,ADCRG_FTSCAT,FTSCAT,C25692,,Subcategory,,1,N,text,100,,Y,N,,,,,,,Word Recognition,,FTSCAT,FTSCAT = Word Recognition
2026-06-30,C100247,ADCRG,CDASHIG,2-3,,FT,ADCRG,,,360,CDISC ADAS-Cog - Word Recognition Summary Score,ADCRG_FTORRES,FTORRES,C91106,,WORD RECOGNITION SUMMARY,,2,Y,decimal,5,2.0,N,N,,,,0;0.33;0.67;1;1.33;1.67;2;2.33;2.67;3;3.33;3.67;4;4.33;4.67;5;5.33;5.67;6;6.33;6.67;7;7.33;7.67;8;8.33;8.67;9;9.33;9.67;10;10.33;10.67;11;11.33;11.67;12,0;0.33;0.67;1;1.33;1.67;2;2.33;2.67;3;3.33;3.67;4;4.33;4.67;5;5.33;5.67;6;6.33;6.67;7;7.33;7.67;8;8.33;8.67;9;9.33;9.67;10;10.33;10.67;11;11.33;11.67;12,Single,,,FTORRES;FTTESTCD;FTTEST,FTORRES when FTTESTCD = ADCRG
2026-06-30,C100247,ADCRG,CDASHIG,2-3,,FT,ADCRG,,,360,CDISC ADAS-Cog - Word Recognition Summary Score,ADCRG_FTREASND,FTREASND,C82556,"If any item(s) are incomplete or not done, please specify reason:",,,3,N,text,200,,N,N,,,,Participant refused;Participant unable for physical reasons;Participant unable for cognitive reasons;Not done for reasons other than physical/cognitive,Participant refused;Participant unable for physical reasons;Participant unable for cognitive reasons;Not done for reasons other than physical/cognitive,Single,,,FTREASND,FTREASND
2026-06-30,C100275,ADCRI,CDASHIG,2-3,,FT,ADCRI,,,360,CDISC ADAS-Cog - Remembering Test Instructions,ADCRI_FTSCAT,FTSCAT,C25692,,Subcategory,,1,N,text,100,,Y,N,,,,,,,Degree of Impairment,,FTSCAT,FTSCAT = Degree of Impairment
2026-06-30,C100275,ADCRI,CDASHIG,2-3,,FT,ADCRI,,,360,CDISC ADAS-Cog - Remembering Test Instructions,ADCRI_FTORRES,FTORRES,C91106,,REMEMBERING TEST INSTRUCTIONS,,2,Y,text,5,2.0,N,N,,,,Subject never needs extra reminders of instructions;Very mild - forgets once;Mild - must be reminded 2 times;Moderate - must be reminded 3 or 4 times;Moderately severe - must be reminded 5 or 6 times;Severe - must be reminded 7 or more times,Subject never needs extra reminders of instructions;Very mild - forgets once;Mild - must be reminded 2 times;Moderate - must be reminded 3 or 4 times;Moderately severe - must be reminded 5 or 6 times;Severe - must be reminded 7 or more times,Single,,,FTORRES;FTTESTCD;FTTEST,FTORRES when FTTESTCD = ADCRI
2026-06-30,C100275,ADCRI,CDASHIG,2-3,,FT,ADCRI,,,360,CDISC ADAS-Cog - Remembering Test Instructions,ADCRI_FTREASND,FTREASND,C82556,"If any item(s) are incomplete or not done, please specify reason:",,,3,N,text,200,,N,N,,,,Participant refused;Participant unable for physical reasons;Participant unable for cognitive reasons;Not done for reasons other than physical/cognitive,Participant refused;Participant unable for physical reasons;Participant unable for cognitive reasons;Not done for reasons other than physical/cognitive,Single,,,FTREASND,FTREASND
2026-06-30,C100177,ADCRL,CDASHIG,2-3,,FT,ADCRL,,,360,CDISC ADAS-Cog - Word Recall Average Score,ADCRL_FTSCAT,FTSCAT,C25692,,Subcategory,,1,N,text,100,,Y,N,,,,,,,Word Recall,,FTSCAT,FTSCAT = Word Recall
2026-06-30,C100177,ADCRL,CDASHIG,2-3,,FT,ADCRL,,,360,CDISC ADAS-Cog - Word Recall Average Score,ADCRL_FTORRES,FTORRES,C91106,,WORD RECALL SUMMARY,,2,Y,decimal,5,2.0,N,N,,,,0;0.33;0.67;1;1.33;1.67;2;2.33;2.67;3;3.33;3.67;4;4.33;4.67;5;5.33;5.67;6;6.33;6.67;7;7.33;7.67;8;8.33;8.67;9;9.33;9.67;10,0;0.33;0.67;1;1.33;1.67;2;2.33;2.67;3;3.33;3.67;4;4.33;4.67;5;5.33;5.67;6;6.33;6.67;7;7.33;7.67;8;8.33;8.67;9;9.33;9.67;10,Single,,,FTORRES;FTTESTCD;FTTEST,FTORRES when FTTESTCD = ADCRL
2026-06-30,C100177,ADCRL,CDASHIG,2-3,,FT,ADCRL,,,360,CDISC ADAS-Cog - Word Recall Average Score,ADCRL_FTREASND,FTREASND,C82556,"If any item(s) are incomplete or not done, please specify reason:",,,3,N,text,200,,N,N,,,,Participant refused;Participant unable for physical reasons;Participant unable for cognitive reasons;Not done for reasons other than physical/cognitive,Participant refused;Participant unable for physical reasons;Participant unable for cognitive reasons;Not done for reasons other than physical/cognitive,Single,,,FTREASND,FTREASND
2026-06-30,C100276,ADCSL,CDASHIG,2-3,,FT,ADCSL,,,360,CDISC ADAS-Cog - Spoken Language Ability,ADCSL_FTSCAT,FTSCAT,C25692,,Subcategory,,1,N,text,100,,Y,N,,,,,,,Degree of Impairment,,FTSCAT,FTSCAT = Degree of Impairment
2026-06-30,C100276,ADCSL,CDASHIG,2-3,,FT,ADCSL,,,360,CDISC ADAS-Cog - Spoken Language Ability,ADCSL_FTORRES,FTORRES,C91106,,SPOKEN LANGUAGE ABILITY,,2,Y,text,5,2.0,N,N,,,,"No instances where it is difficult to understand the subject;Very mild - one instance of lack of understandability;Mild - patient has difficulty less than 25% of the time;Moderate - patient has difficulty 25-50% of the time;Moderately severe - patient has difficulty 50% of the time;Severe - one or two word utterance - fluent, but empty speech, mute","No instances where it is difficult to understand the subject;Very mild - one instance of lack of understandability;Mild - patient has difficulty less than 25% of the time;Moderate - patient has difficulty 25-50% of the time;Moderately severe - patient has difficulty 50% of the time;Severe - one or two word utterance - fluent, but empty speech, mute",Single,,,FTORRES;FTTESTCD;FTTEST,FTORRES when FTTESTCD = ADCSL
2026-06-30,C115789,SIXMW10,CDASHIG,2-3,,FT,SIXMW10,,,,SIX MINUTE WALK,SIXMW1_FTPERF,FTPERF,C82525,Was the Six Minute Walk Test performed?,,,1,N,text,1,,N,N,,C66742,NY,N;Y,No;Yes,Single,,,FTSTAT,FTREASND when FTSTAT=NOT DONE
2026-06-30,C115789,SIXMW10,CDASHIG,2-3,,FT,SIXMW10,,,,SIX MINUTE WALK,SIXMW1_FTDAT,FTDAT,C82515,,Date of Assessment,,2,Y,date,10,,N,N,,,,,,,,,FTDTC,FTDTC
2026-06-30,C115789,SIXMW10,CDASHIG,2-3,,FT,SIXMW10,,,,SIX MINUTE WALK,SIXMW1_FTCAT,FTCAT,C25372,,Category,,3,Y,text,50,,Y,N,,C115304,FTCAT,,,,SIX MINUTE WALK,C115789,FTCAT,FTCAT = SIX MINUTE WALK
2026-06-30,C115789,SIXMW10,CDASHIG,2-3,,FT,SIXMW10,,,,SIX MINUTE WALK,SIXMW1_FTASTDEV,FTASTDEV,C93300,,Assisted Device,,4,Y,text,200,,N,N,,,,,,,,,FTASTDEV,QVAL when QNAM=FTASTDEV
2026-06-30,C115800,SIXMW101,CDASHIG,2-3,,FT,SIXMW101,,,,SIXMW1-Distance at 1 Minute,SIXMW101_FTORRES,FTORRES,C91106,,Distance at 1 Minute,,1,Y,integer,3,,N,N,,,,,,,,,FTORRES;FTTESTCD;FTTEST,FTORRES when FTTESTCD = SIXMW101
2026-06-30,C115800,SIXMW101,CDASHIG,2-3,,FT,SIXMW101,,,,SIXMW1-Distance at 1 Minute,SIXMW101_FTORRESU,FTORRESU,C42578,,Unit,,2,Y,text,1,,N,N,,C71620,UNIT,,,,m,C41139,FTORRESU;FTSTRESU,"FTORRESU when FTTESTCD = ""SIXMW101"""
2026-06-30,C115801,SIXMW102,CDASHIG,2-3,,FT,SIXMW102,,,,SIXMW1-Distance at 2 Minute,SIXMW102_FTORRES,FTORRES,C91106,,Distance at 2 Minutes,,1,Y,integer,3,,N,N,,,,,,,,,FTORRES;FTTESTCD;FTTEST,FTORRES when FTTESTCD = SIXMW102
2026-06-30,C115801,SIXMW102,CDASHIG,2-3,,FT,SIXMW102,,,,SIXMW1-Distance at 2 Minute,SIXMW102_FTORRESU,FTORRESU,C42578,,Unit,,2,Y,text,1,,N,N,,C71620,UNIT,,,,m,C41139,FTORRESU;FTSTRESU,FTORRESU when FTTESTCD = SIXMW102
2026-06-30,C115802,SIXMW103,CDASHIG,2-3,,FT,SIXMW103,,,,SIXMW1-Distance at 3 Minute,SIXMW103_FTORRES,FTORRES,C91106,,Distance at 3 Minutes,,1,Y,integer,3,,N,N,,,,,,,,,FTORRES;FTTESTCD;FTTEST,FTORRES when FTTESTCD = SIXMW103
2026-06-30,C115802,SIXMW103,CDASHIG,2-3,,FT,SIXMW103,,,,SIXMW1-Distance at 3 Minute,SIXMW103_FTORRESU,FTORRESU,C42578,,Unit,,2,Y,text,1,,N,N,,C71620,UNIT,,,,m,C41139,FTORRESU;FTSTRESU,FTORRESU when FTTESTCD = SIXMW103
2026-06-30,C115803,SIXMW104,CDASHIG,2-3,,FT,SIXMW104,,,,SIXMW1-Distance at 4 Minute,SIXMW104_FTORRES,FTORRES,C91106,,Distance at 4 Minutes,,1,Y,integer,3,,N,N,,,,,,,,,FTORRES;FTTESTCD;FTTEST,FTORRES when FTTESTCD = SIXMW104
2026-06-30,C115803,SIXMW104,CDASHIG,2-3,,FT,SIXMW104,,,,SIXMW1-Distance at 4 Minute,SIXMW104_FTORRESU,FTORRESU,C42578,,Unit,,2,Y,text,1,,N,N,,C71620,UNIT,,,,m,C41139,FTORRESU;FTSTRESU,FTORRESU when FTTESTCD = SIXMW104
2026-06-30,C115804,SIXMW105,CDASHIG,2-3,,FT,SIXMW105,,,,SIXMW1-Distance at 5 Minute,SIXMW105_FTORRES,FTORRES,C91106,,Distance at 5 Minutes,,1,Y,integer,3,,N,N,,,,,,,,,FTORRES;FTTESTCD;FTTEST,FTORRES when FTTESTCD = SIXMW105
2026-06-30,C115804,SIXMW105,CDASHIG,2-3,,FT,SIXMW105,,,,SIXMW1-Distance at 5 Minute,SIXMW105_FTORRESU,FTORRESU,C42578,,Unit,,2,Y,text,1,,N,N,,C71620,UNIT,,,,m,C41139,FTORRESU;FTSTRESU,FTORRESU when FTTESTCD = SIXMW105
2026-06-30,C115805,SIXMW106,CDASHIG,2-3,,FT,SIXMW106,,,,SIXMW1-Distance at 6 Minute,SIXMW106_FTORRES,FTORRES,C91106,,Distance at 6 Minutes,,1,Y,integer,3,,N,N,,,,,,,,,FTORRES;FTTESTCD;FTTEST,FTORRES when FTTESTCD = SIXMW106
2026-06-30,C115805,SIXMW106,CDASHIG,2-3,,FT,SIXMW106,,,,SIXMW1-Distance at 6 Minute,SIXMW106_FTORRESU,FTORRESU,C42578,,Unit,,2,Y,text,1,,N,N,,C71620,UNIT,,,,m,C41139,FTORRESU;FTSTRESU,FTORRESU when FTTESTCD = SIXMW106
2026-06-30,C25370,EXCL01,CDASHIG,2-1,,IE,EXCL01,,,,Exclusion Criteria 01,IEDAT,IEDAT,C82515,What was the date the eligibility criteria assessment was performed?,,,1,Y,date,10,,N,N,,,,,,,,,IEDTC,IEDTC when IECAT = EXCLUSION
2026-06-30,C25370,EXCL01,CDASHIG,2-1,,IE,EXCL01,,,,Exclusion Criteria 01,IECAT,IECAT,C25372,What was the category of the criterion?,,,2,Y,text,15,,N,N,,C66797,IECAT,,,,EXCLUSION,C25370,IECAT,IECAT = EXCLUSION
2026-06-30,C25370,EXCL01,CDASHIG,2-1,,IE,EXCL01,,,,Exclusion Criteria 01,IEORRES,IEORRES,C181043,What was the identifier of the exclusion criterion the subject met?,,,3,Y,text,20,,N,N,,,,EXCL01;EXCL02;EXCL03,EXCL01;EXCL02;EXCL03,Multiple,,,IEORRES;IETESTCD;IETEST,IETESTCD when IECAT = EXCLUSION
2026-06-30,C25370,EXCL01,CDASHIG,2-1,,IE,EXCL01_SHORT,,Without Date,,Exclusion Criteria 01,IECAT,IECAT,C25372,What was the category of the criterion?,,,2,Y,text,15,,N,N,,C66797,IECAT,,,,EXCLUSION,C25370,IECAT,IECAT = EXCLUSION
2026-06-30,C25370,EXCL01,CDASHIG,2-1,,IE,EXCL01_SHORT,,Without Date,,Exclusion Criteria 01,IEORRES,IEORRES,C181043,What was the identifier of the exclusion criterion the subject met?,,,3,Y,text,20,,N,N,,,,EXCL01;EXCL02;EXCL03,EXCL01;EXCL02;EXCL03,Multiple,,,IEORRES;IETESTCD;IETEST,IETESTCD when IECAT = EXCLUSION
2026-06-30,C25370,EXCL01,CDASHIG,2-1,,IE,EXCL01_SHORT_360,,,360,Exclusion Criteria 01,IECAT,IECAT,C25372,What was the category of the criterion?,,,2,Y,text,15,,N,N,,C66797,IECAT,,,,EXCLUSION,C25370,IECAT,IECAT = EXCLUSION
2026-06-30,C25370,EXCL01,CDASHIG,2-1,,IE,EXCL01_SHORT_360,,,360,Exclusion Criteria 01,IEORRES,IEORRES,C181043,What was the identifier of the exclusion criterion the subject met?,,,3,Y,text,20,,N,N,,,,EXCL01;EXCL02;EXCL03;EXCL04;EXCL05;EXCL06;EXCL07;EXCL08;EXCL09;EXCL10;EXCL11;EXCL12;EXCL13;EXCL14;EXCL15;EXCL16;EXCL17;EXCL18;EXCL19;EXCL20;EXCL21;EXCL22;EXCL23;EXCL24;EXCL25,EXCL01;EXCL02;EXCL03;EXCL04;EXCL05;EXCL06;EXCL07;EXCL08;EXCL09;EXCL10;EXCL11;EXCL12;EXCL13;EXCL14;EXCL15;EXCL16;EXCL17;EXCL18;EXCL19;EXCL20;EXCL21;EXCL22;EXCL23;EXCL24;EXCL25,Multiple,,,IEORRES;IETESTCD;IETEST,IETESTCD when IECAT = EXCLUSION
2026-06-30,C25532,INCL01,CDASHIG,2-1,,IE,INCL01,,,,Inclusion Criteria 01,IEDAT,IEDAT,C82515,What was the date the eligibility criteria assessment was performed?,,,1,Y,date,10,,N,N,,,,,,,,,IEDTC,IEDTC when IECAT = INCLUSION
2026-06-30,C25532,INCL01,CDASHIG,2-1,,IE,INCL01,,,,Inclusion Criteria 01,IECAT,IECAT,C25372,What was the category of the criterion?,,,2,Y,text,15,,N,N,,C66797,IECAT,,,,INCLUSION,C25532,IECAT,IECAT = INCLUSION
2026-06-30,C25532,INCL01,CDASHIG,2-1,,IE,INCL01,,,,Inclusion Criteria 01,IEORRES,IEORRES,C181043,What was the identifier of the inclusion criterion the subject did not meet ?,,,3,Y,text,20,,N,N,,,,INCL01;INCL02;INCL03,INCL01;INCL02;INCL03,Multiple,,,IEORRES;IETESTCD;IETEST,IETESTCD when IECAT = INCLUSION
2026-06-30,C25532,INCL01,CDASHIG,2-1,,IE,INCL01_SHORT,,Without Date,,Inclusion Criteria 01,IECAT,IECAT,C25372,What was the category of the criterion?,,,2,Y,text,15,,N,N,,C66797,IECAT,,,,INCLUSION,C25532,IECAT,IECAT = INCLUSION
2026-06-30,C25532,INCL01,CDASHIG,2-1,,IE,INCL01_SHORT,,Without Date,,Inclusion Criteria 01,IEORRES,IEORRES,C181043,What was the identifier of the inclusion criterion the subject did not meet ?,,,3,Y,text,20,,N,N,,,,INCL01;INCL02;INCL03,INCL01;INCL02;INCL03,Multiple,,,IEORRES;IETESTCD;IETEST,IETESTCD when IECAT = INCLUSION
2026-06-30,C25532,INCL01,CDASHIG,2-1,,IE,INCL01_SHORT_360,,,360,Inclusion Criteria 01,IECAT,IECAT,C25372,What was the category of the criterion?,,,2,Y,text,15,,N,N,,C66797,IECAT,,,,INCLUSION,C25532,IECAT,IECAT = INCLUSION
2026-06-30,C25532,INCL01,CDASHIG,2-1,,IE,INCL01_SHORT_360,,,360,Inclusion Criteria 01,IEORRES,IEORRES,C181043,What was the identifier of the inclusion criterion the subject did not meet ?,,,3,Y,text,20,,N,N,,,,INCL01;INCL02;INCL03;INCL04;INCL05;INCL06;INCL07;INCL08,INCL01;INCL02;INCL03;INCL04;INCL05;INCL06;INCL07;INCL08,Multiple,,,IEORRES;IETESTCD;IETEST,IETESTCD when IECAT = INCLUSION
2026-06-30,C83063,,CDASHIG,2-1,,IE,INCLEXCLYN,,,,Inclusion Exclusion Criteria Yes No,IEYN,IEYN,C83063,Were all eligibility criteria met?,,,1,Y,text,1,,N,N,,C66742,NY,N;Y,No;Yes,Single,,,,[NOT SUBMITTED]
2026-06-30,C83063,,CDASHIG,2-1,,IE,INCLEXCLYN,,,,Inclusion Exclusion Criteria Yes No,IEDAT,IEDAT,C82515,What was the date the eligibility criteria assessment was performed?,,,2,N,date,10,,N,N,,,,,,,,,IEDTC,IEDTC
2026-06-30,C74761,ALBCREATURIN,CDASHIG,2-3,,LB,ALBCREATURIN_DENORMALIZED,Denormalized,Local Processing,,Albumin/Creatinine in Urine (Denormalized),ALBCREAT_LBCAT,LBCAT,,,Lab Panel Name,,1,N,text,100,,Y,N,,,,,,,CHEMISTRY,,LBCAT,LBCAT
2026-06-30,C74761,ALBCREATURIN,CDASHIG,2-3,,LB,ALBCREATURIN_DENORMALIZED,Denormalized,Local Processing,,Albumin/Creatinine in Urine (Denormalized),ALBCREAT_LBSCAT,LBSCAT,,,Lab Sub-Panel Name,,2,N,text,100,,Y,N,,,,,,,,,LBSCAT,LBSCAT
2026-06-30,C74761,ALBCREATURIN,CDASHIG,2-3,,LB,ALBCREATURIN_DENORMALIZED,Denormalized,Local Processing,,Albumin/Creatinine in Urine (Denormalized),ALBCREAT_LBNAM,LBNAM,,What was the name of the laboratory used?,,,3,N,text,200,,N,N,,,,,,,,,LBNAM,LBNAM
2026-06-30,C74761,ALBCREATURIN,CDASHIG,2-3,,LB,ALBCREATURIN_DENORMALIZED,Denormalized,Local Processing,,Albumin/Creatinine in Urine (Denormalized),ALBCREAT_LBDAT,LBDAT,C82515,,Specimen Collection Date,,4,N,date,10,,N,N,,,,,,,,,LBDTC,LBDTC
2026-06-30,C74761,ALBCREATURIN,CDASHIG,2-3,,LB,ALBCREATURIN_DENORMALIZED,Denormalized,Local Processing,,Albumin/Creatinine in Urine (Denormalized),ALBCREAT_LBSPEC,LBSPEC,C70713,,Specimen Material,,5,Y,text,100,,N,N,,C78734,SPECTYPE,,,,URINE,C13283,LBSPEC,LBSPEC
2026-06-30,C74761,ALBCREATURIN,CDASHIG,2-3,,LB,ALBCREATURIN_DENORMALIZED,Denormalized,Local Processing,,Albumin/Creatinine in Urine (Denormalized),ALBCREAT_LBFAST,LBFAST,C93566,Was the subject fasting?,,,6,N,text,1,,N,N,,C66742,NY,N;Y,No;Yes,Single,,,LBFAST,LBFAST
2026-06-30,C74761,ALBCREATURIN,CDASHIG,2-3,,LB,ALBCREATURIN_DENORMALIZED,Denormalized,Local Processing,,Albumin/Creatinine in Urine (Denormalized),ALBCREAT_LBORRES,LBORRES,C70856,,Albumin/Creatinine,,7,Y,decimal,8,2.0,N,N,,,,,,,,,LBORRES;LBTESTCD;LBTEST,LBORRES when LBTESTCD = ALBCREAT
2026-06-30,C74761,ALBCREATURIN,CDASHIG,2-3,,LB,ALBCREATURIN_DENORMALIZED,Denormalized,Local Processing,,Albumin/Creatinine in Urine (Denormalized),ALBCREAT_LBORRESU,LBORRESU,C48207,,Unit,,8,Y,text,20,,N,N,,C71620,UNIT,g/kg;mmol/mol;g/mol,g/kg;mmol/mol;g/mol,Single,,,LBORRESU;LBTESTCD;LBTEST,LBORRESU when LBTESTCD = ALBCREAT
2026-06-30,C74761,ALBCREATURIN,CDASHIG,2-3,,LB,ALBCREATURIN_DENORMALIZED,Denormalized,Local Processing,,Albumin/Creatinine in Urine (Denormalized),ALBCREAT_LBORNRLO,LBORNRLO,,,Normal Range Lower Limit,,9,N,decimal,8,2.0,N,N,,,,,,,,,LBORNRLO,LBORNRLO
2026-06-30,C74761,ALBCREATURIN,CDASHIG,2-3,,LB,ALBCREATURIN_DENORMALIZED,Denormalized,Local Processing,,Albumin/Creatinine in Urine (Denormalized),ALBCREAT_LBORNRHI,LBORNRHI,,,Normal Range Upper Limit,,10,N,decimal,8,2.0,N,N,,,,,,,,,LBORNRHI,LBORNRHI
2026-06-30,C74761,ALBCREATURIN,CDASHIG,2-3,,LB,ALBCREATURIN_DENORMALIZED,Denormalized,Local Processing,,Albumin/Creatinine in Urine (Denormalized),ALBCREAT_LBCLSIG,LBCLSIG,,Was this result clinically significant?,,,11,N,text,1,,N,N,,C66742,NY,N;Y,No;Yes,Single,,,LBCLSIG,LBCLSIG
2026-06-30,C64431,ALBSERPL,CDASHIG,2-3,,LB,ALBSERPL_DENORMALIZED,Denormalized,Local Processing,,Albumin Concentration in Serum/Plasma (Denormalized),ALB_LBCAT,LBCAT,,,Lab Panel Name,,1,N,text,100,,Y,N,,,,,,,CHEMISTRY,,LBCAT,LBCAT = CHEMISTRY
2026-06-30,C64431,ALBSERPL,CDASHIG,2-3,,LB,ALBSERPL_DENORMALIZED,Denormalized,Local Processing,,Albumin Concentration in Serum/Plasma (Denormalized),ALB_LBSCAT,LBSCAT,,,Lab Sub-Panel Name,,2,N,text,100,,Y,N,,,,,,,,,LBSCAT,LBSCAT
2026-06-30,C64431,ALBSERPL,CDASHIG,2-3,,LB,ALBSERPL_DENORMALIZED,Denormalized,Local Processing,,Albumin Concentration in Serum/Plasma (Denormalized),ALB_LBNAM,LBNAM,,What was the name of the laboratory used?,,,3,N,text,200,,N,N,,,,,,,,,LBNAM,LBNAM
2026-06-30,C64431,ALBSERPL,CDASHIG,2-3,,LB,ALBSERPL_DENORMALIZED,Denormalized,Local Processing,,Albumin Concentration in Serum/Plasma (Denormalized),ALB_LBDAT,LBDAT,C82515,,Specimen Collection Date,,4,N,date,10,,N,N,,,,,,,,,LBDTC,LBDTC
2026-06-30,C64431,ALBSERPL,CDASHIG,2-3,,LB,ALBSERPL_DENORMALIZED,Denormalized,Local Processing,,Albumin Concentration in Serum/Plasma (Denormalized),ALB_LBSPEC,LBSPEC,C70713,,Specimen Material,,5,Y,text,100,,N,N,,C78734,SPECTYPE,,,,SERUM OR PLASMA,C105706,LBSPEC,LBSPEC
2026-06-30,C64431,ALBSERPL,CDASHIG,2-3,,LB,ALBSERPL_DENORMALIZED,Denormalized,Local Processing,,Albumin Concentration in Serum/Plasma (Denormalized),ALB_LBFAST,LBFAST,C93566,Was the subject fasting?,,,6,N,text,1,,N,N,,C66742,NY,N;Y,No;Yes,Single,,,LBFAST,LBFAST
2026-06-30,C64431,ALBSERPL,CDASHIG,2-3,,LB,ALBSERPL_DENORMALIZED,Denormalized,Local Processing,,Albumin Concentration in Serum/Plasma (Denormalized),ALB_LBORRES,LBORRES,C70856,,Albumin,,7,Y,decimal,8,2.0,N,N,,,,,,,,,LBORRES;LBTESTCD;LBTEST,LBORRES when LBTESTCD = ALB
2026-06-30,C64431,ALBSERPL,CDASHIG,2-3,,LB,ALBSERPL_DENORMALIZED,Denormalized,Local Processing,,Albumin Concentration in Serum/Plasma (Denormalized),ALB_LBORRESU,LBORRESU,C48207,,Unit,,8,Y,text,20,,N,N,,C71620,UNIT,g/L;g/dL;mg/dL;umol/L,g/L;g/dL;mg/dL;umol/L,Single,,,LBORRESU;LBTESTCD;LBTEST,LBORRESU when LBTESTCD = ALB
2026-06-30,C64431,ALBSERPL,CDASHIG,2-3,,LB,ALBSERPL_DENORMALIZED,Denormalized,Local Processing,,Albumin Concentration in Serum/Plasma (Denormalized),ALB_LBORNRLO,LBORNRLO,,,Normal Range Lower Limit,,9,N,decimal,8,2.0,N,N,,,,,,,,,LBORNRLO,LBORNRLO
2026-06-30,C64431,ALBSERPL,CDASHIG,2-3,,LB,ALBSERPL_DENORMALIZED,Denormalized,Local Processing,,Albumin Concentration in Serum/Plasma (Denormalized),ALB_LBORNRHI,LBORNRHI,,,Normal Range Upper Limit,,10,N,decimal,8,2.0,N,N,,,,,,,,,LBORNRHI,LBORNRHI
2026-06-30,C64431,ALBSERPL,CDASHIG,2-3,,LB,ALBSERPL_DENORMALIZED,Denormalized,Local Processing,,Albumin Concentration in Serum/Plasma (Denormalized),ALB_LBCLSIG,LBCLSIG,,Was this result clinically significant?,,,11,N,text,1,,N,N,,C66742,NY,N;Y,No;Yes,Single,,,LBCLSIG,LBCLSIG
2026-06-30,C64431,ALBURINPRES,CDASHIG,2-3,,LB,ALBURINPRES_DENORMALIZED,Denormalized,Local Processing,,Albumin Presence in Urine (Denormalized),ALB_LBCAT,LBCAT,,,Lab Panel Name,,1,N,text,100,,Y,N,,,,,,,CHEMISTRY,,LBCAT,LBCAT
2026-06-30,C64431,ALBURINPRES,CDASHIG,2-3,,LB,ALBURINPRES_DENORMALIZED,Denormalized,Local Processing,,Albumin Presence in Urine (Denormalized),ALB_LBSCAT,LBSCAT,,,Lab Sub-Panel Name,,2,N,text,100,,Y,N,,,,,,,,,LBSCAT,LBSCAT
2026-06-30,C64431,ALBURINPRES,CDASHIG,2-3,,LB,ALBURINPRES_DENORMALIZED,Denormalized,Local Processing,,Albumin Presence in Urine (Denormalized),ALB_LBNAM,LBNAM,,What was the name of the laboratory used?,,,3,N,text,200,,N,N,,,,,,,,,LBNAM,LBNAM
2026-06-30,C64431,ALBURINPRES,CDASHIG,2-3,,LB,ALBURINPRES_DENORMALIZED,Denormalized,Local Processing,,Albumin Presence in Urine (Denormalized),ALB_LBDAT,LBDAT,C82515,,Specimen Collection Date,,4,N,date,10,,N,N,,,,,,,,,LBDTC,LBDTC
2026-06-30,C64431,ALBURINPRES,CDASHIG,2-3,,LB,ALBURINPRES_DENORMALIZED,Denormalized,Local Processing,,Albumin Presence in Urine (Denormalized),ALB_LBSPEC,LBSPEC,C70713,,Specimen Material,,5,Y,text,100,,N,N,,C78734,SPECTYPE,,,,URINE,C13283,LBSPEC,LBSPEC
2026-06-30,C64431,ALBURINPRES,CDASHIG,2-3,,LB,ALBURINPRES_DENORMALIZED,Denormalized,Local Processing,,Albumin Presence in Urine (Denormalized),ALB_LBFAST,LBFAST,C93566,Was the subject fasting?,,,6,N,text,1,,N,N,,C66742,NY,N;Y,No;Yes,Single,,,LBFAST,LBFAST
2026-06-30,C64431,ALBURINPRES,CDASHIG,2-3,,LB,ALBURINPRES_DENORMALIZED,Denormalized,Local Processing,,Albumin Presence in Urine (Denormalized),ALB_LBORRES,LBORRES,C70856,,Albumin,,7,Y,text,100,,N,N,,,,,,,,,LBORRES;LBTESTCD;LBTEST,LBORRES when LBTESTCD = ALB
2026-06-30,C64431,ALBURINPRES,CDASHIG,2-3,,LB,ALBURINPRES_DENORMALIZED,Denormalized,Local Processing,,Albumin Presence in Urine (Denormalized),ALB_LBORNRLO,LBORNRLO,,,Normal Range Lower Limit,,8,N,decimal,8,2.0,N,N,,,,,,,,,LBORNRLO,LBORNRLO
2026-06-30,C64431,ALBURINPRES,CDASHIG,2-3,,LB,ALBURINPRES_DENORMALIZED,Denormalized,Local Processing,,Albumin Presence in Urine (Denormalized),ALB_LBORNRHI,LBORNRHI,,,Normal Range Upper Limit,,9,N,decimal,8,2.0,N,N,,,,,,,,,LBORNRHI,LBORNRHI
2026-06-30,C64431,ALBURIN,CDASHIG,2-3,,LB,ALBURIN_DENORMALIZED,Denormalized,Local Processing,,Albumin Concentration in Urine (Denormalized),ALB_LBCAT,LBCAT,,,Lab Panel Name,,1,N,text,100,,Y,N,,,,,,,CHEMISTRY,,LBCAT,LBCAT = CHEMISTRY
2026-06-30,C64431,ALBURIN,CDASHIG,2-3,,LB,ALBURIN_DENORMALIZED,Denormalized,Local Processing,,Albumin Concentration in Urine (Denormalized),ALB_LBSCAT,LBSCAT,,,Lab Sub-Panel Name,,2,N,text,100,,Y,N,,,,,,,,,LBSCAT,LBSCAT
2026-06-30,C64431,ALBURIN,CDASHIG,2-3,,LB,ALBURIN_DENORMALIZED,Denormalized,Local Processing,,Albumin Concentration in Urine (Denormalized),ALB_LBNAM,LBNAM,,What was the name of the laboratory used?,,,3,N,text,200,,N,N,,,,,,,,,LBNAM,LBNAM
2026-06-30,C64431,ALBURIN,CDASHIG,2-3,,LB,ALBURIN_DENORMALIZED,Denormalized,Local Processing,,Albumin Concentration in Urine (Denormalized),ALB_LBDAT,LBDAT,C82515,,Specimen Collection Date,,4,N,date,10,,N,N,,,,,,,,,LBDTC,LBDTC
2026-06-30,C64431,ALBURIN,CDASHIG,2-3,,LB,ALBURIN_DENORMALIZED,Denormalized,Local Processing,,Albumin Concentration in Urine (Denormalized),ALB_LBSPEC,LBSPEC,C70713,,Specimen Material,,5,Y,text,100,,N,N,,C78734,SPECTYPE,,,,URINE,C13283,LBSPEC,LBSPEC = URINE
2026-06-30,C64431,ALBURIN,CDASHIG,2-3,,LB,ALBURIN_DENORMALIZED,Denormalized,Local Processing,,Albumin Concentration in Urine (Denormalized),ALB_LBFAST,LBFAST,C93566,Was the subject fasting?,,,6,N,text,1,,N,N,,C66742,NY,N;Y,No;Yes,Single,,,LBFAST,LBFAST
2026-06-30,C64431,ALBURIN,CDASHIG,2-3,,LB,ALBURIN_DENORMALIZED,Denormalized,Local Processing,,Albumin Concentration in Urine (Denormalized),ALB_LBORRES,LBORRES,C70856,,Albumin,,7,Y,decimal,8,2.0,N,N,,,,,,,,,LBORRES;LBTESTCD;LBTEST,LBORRES when LBTESTCD = ALB
2026-06-30,C64431,ALBURIN,CDASHIG,2-3,,LB,ALBURIN_DENORMALIZED,Denormalized,Local Processing,,Albumin Concentration in Urine (Denormalized),ALB_LBORRESU,LBORRESU,C48207,,Unit,,8,Y,text,20,,N,N,,C71620,UNIT,g/L;g/dL;mg/dL;mg/L,g/L;g/dL;mg/dL;mg/L,Single,,,LBORRESU;LBTESTCD;LBTEST,LBORRESU when LBTESTCD = ALB
2026-06-30,C64431,ALBURIN,CDASHIG,2-3,,LB,ALBURIN_DENORMALIZED,Denormalized,Local Processing,,Albumin Concentration in Urine (Denormalized),ALB_LBORNRLO,LBORNRLO,,,Normal Range Lower Limit,,9,N,decimal,8,2.0,N,N,,,,,,,,,LBORNRLO,LBORNRLO
2026-06-30,C64431,ALBURIN,CDASHIG,2-3,,LB,ALBURIN_DENORMALIZED,Denormalized,Local Processing,,Albumin Concentration in Urine (Denormalized),ALB_LBORNRHI,LBORNRHI,,,Normal Range Upper Limit,,10,N,decimal,8,2.0,N,N,,,,,,,,,LBORNRHI,LBORNRHI
2026-06-30,C64431,ALBURIN,CDASHIG,2-3,,LB,ALBURIN_DENORMALIZED,Denormalized,Local Processing,,Albumin Concentration in Urine (Denormalized),ALB_LBCLSIG,LBCLSIG,,Was this result clinically significant?,,,11,N,text,1,,N,N,,C66742,NY,N;Y,No;Yes,Single,,,LBCLSIG,LBCLSIG
2026-06-30,C64432,ALPSERPL,CDASHIG,2-3,,LB,ALPSERPL_DENORMALIZED,Denormalized,Local Processing,,Alkaline Phosphatase Concentration in Serum/Plasma (Denormalized),ALP_LBCAT,LBCAT,,,Lab Panel Name,,1,N,text,100,,Y,N,,,,,,,CHEMISTRY,,LBCAT,LBCAT = CHEMISTRY
2026-06-30,C64432,ALPSERPL,CDASHIG,2-3,,LB,ALPSERPL_DENORMALIZED,Denormalized,Local Processing,,Alkaline Phosphatase Concentration in Serum/Plasma (Denormalized),ALP_LBSCAT,LBSCAT,,,Lab Sub-Panel Name,,2,N,text,100,,Y,N,,,,,,,,,LBSCAT,LBSCAT
2026-06-30,C64432,ALPSERPL,CDASHIG,2-3,,LB,ALPSERPL_DENORMALIZED,Denormalized,Local Processing,,Alkaline Phosphatase Concentration in Serum/Plasma (Denormalized),ALP_LBNAM,LBNAM,,What was the name of the laboratory used?,,,3,N,text,200,,N,N,,,,,,,,,LBNAM,LBNAM
2026-06-30,C64432,ALPSERPL,CDASHIG,2-3,,LB,ALPSERPL_DENORMALIZED,Denormalized,Local Processing,,Alkaline Phosphatase Concentration in Serum/Plasma (Denormalized),ALP_LBDAT,LBDAT,C82515,,Specimen Collection Date,,4,N,date,10,,N,N,,,,,,,,,LBDTC,LBDTC
2026-06-30,C64432,ALPSERPL,CDASHIG,2-3,,LB,ALPSERPL_DENORMALIZED,Denormalized,Local Processing,,Alkaline Phosphatase Concentration in Serum/Plasma (Denormalized),ALP_LBSPEC,LBSPEC,C70713,,Specimen Material,,5,Y,text,100,,N,N,,C78734,SPECTYPE,,,,SERUM OR PLASMA,C105706,LBSPEC,LBSPEC
2026-06-30,C64432,ALPSERPL,CDASHIG,2-3,,LB,ALPSERPL_DENORMALIZED,Denormalized,Local Processing,,Alkaline Phosphatase Concentration in Serum/Plasma (Denormalized),ALP_LBFAST,LBFAST,C93566,Was the subject fasting?,,,6,N,text,1,,N,N,,C66742,NY,N;Y,No;Yes,Single,,,LBFAST,LBFAST
2026-06-30,C64432,ALPSERPL,CDASHIG,2-3,,LB,ALPSERPL_DENORMALIZED,Denormalized,Local Processing,,Alkaline Phosphatase Concentration in Serum/Plasma (Denormalized),ALP_LBORRES,LBORRES,C70856,,Alkaline Phosphatase,,7,Y,decimal,8,2.0,N,N,,,,,,,,,LBORRES;LBTESTCD;LBTEST,LBORRES when LBTESTCD = ALP
2026-06-30,C64432,ALPSERPL,CDASHIG,2-3,,LB,ALPSERPL_DENORMALIZED,Denormalized,Local Processing,,Alkaline Phosphatase Concentration in Serum/Plasma (Denormalized),ALP_LBORRESU,LBORRESU,C67365,,Unit,,8,Y,text,20,,N,N,,C71620,UNIT,U/L;ukat/L;IU/L,U/L;ukat/L;IU/L,Single,,,LBORRESU;LBTESTCD;LBTEST,LBORRESU when LBTESTCD = ALP
2026-06-30,C64432,ALPSERPL,CDASHIG,2-3,,LB,ALPSERPL_DENORMALIZED,Denormalized,Local Processing,,Alkaline Phosphatase Concentration in Serum/Plasma (Denormalized),ALP_LBORNRLO,LBORNRLO,,,Normal Range Lower Limit,,9,N,decimal,8,2.0,N,N,,,,,,,,,LBORNRLO,LBORNRLO
2026-06-30,C64432,ALPSERPL,CDASHIG,2-3,,LB,ALPSERPL_DENORMALIZED,Denormalized,Local Processing,,Alkaline Phosphatase Concentration in Serum/Plasma (Denormalized),ALP_LBORNRHI,LBORNRHI,,,Normal Range Upper Limit,,10,N,decimal,8,2.0,N,N,,,,,,,,,LBORNRHI,LBORNRHI
2026-06-30,C64432,ALPSERPL,CDASHIG,2-3,,LB,ALPSERPL_DENORMALIZED,Denormalized,Local Processing,,Alkaline Phosphatase Concentration in Serum/Plasma (Denormalized),ALP_LBCLSIG,LBCLSIG,,Was this result clinically significant?,,,11,N,text,1,,N,N,,C66742,NY,N;Y,No;Yes,Single,,,LBCLSIG,LBCLSIG
2026-06-30,C64433,ALTSERPL,CDASHIG,2-3,,LB,ALTSERPL_DENORMALIZED,Denormalized,Local Processing,,Alanine Aminotransferase Concentration in Serum/Plasma (Denormalized),ALT_LBCAT,LBCAT,,,Lab Panel Name,,1,N,text,100,,Y,N,,,,,,,CHEMISTRY,,LBCAT,LBCAT = CHEMISTRY
2026-06-30,C64433,ALTSERPL,CDASHIG,2-3,,LB,ALTSERPL_DENORMALIZED,Denormalized,Local Processing,,Alanine Aminotransferase Concentration in Serum/Plasma (Denormalized),ALT_LBSCAT,LBSCAT,,,Lab Sub-Panel Name,,2,N,text,100,,Y,N,,,,,,,,,LBSCAT,LBSCAT
2026-06-30,C64433,ALTSERPL,CDASHIG,2-3,,LB,ALTSERPL_DENORMALIZED,Denormalized,Local Processing,,Alanine Aminotransferase Concentration in Serum/Plasma (Denormalized),ALT_LBNAM,LBNAM,,What was the name of the laboratory used?,,,3,N,text,200,,N,N,,,,,,,,,LBNAM,LBNAM
2026-06-30,C64433,ALTSERPL,CDASHIG,2-3,,LB,ALTSERPL_DENORMALIZED,Denormalized,Local Processing,,Alanine Aminotransferase Concentration in Serum/Plasma (Denormalized),ALT_LBDAT,LBDAT,C82515,,Specimen Collection Date,,4,N,date,10,,N,N,,,,,,,,,LBDTC,LBDTC
2026-06-30,C64433,ALTSERPL,CDASHIG,2-3,,LB,ALTSERPL_DENORMALIZED,Denormalized,Local Processing,,Alanine Aminotransferase Concentration in Serum/Plasma (Denormalized),ALT_LBSPEC,LBSPEC,C70713,,Specimen Material,,5,Y,text,100,,N,N,,C78734,SPECTYPE,,,,SERUM OR PLASMA,C105706,LBSPEC,LBSPEC
2026-06-30,C64433,ALTSERPL,CDASHIG,2-3,,LB,ALTSERPL_DENORMALIZED,Denormalized,Local Processing,,Alanine Aminotransferase Concentration in Serum/Plasma (Denormalized),ALT_LBFAST,LBFAST,C93566,Was the subject fasting?,,,6,N,text,1,,N,N,,C66742,NY,N;Y,No;Yes,Single,,,LBFAST,LBFAST
2026-06-30,C64433,ALTSERPL,CDASHIG,2-3,,LB,ALTSERPL_DENORMALIZED,Denormalized,Local Processing,,Alanine Aminotransferase Concentration in Serum/Plasma (Denormalized),ALT_LBORRES,LBORRES,C70856,,Alanine Aminotransferase,,7,Y,decimal,8,2.0,N,N,,,,,,,,,LBORRES;LBTESTCD;LBTEST,LBORRES when LBTESTCD = ALT
2026-06-30,C64433,ALTSERPL,CDASHIG,2-3,,LB,ALTSERPL_DENORMALIZED,Denormalized,Local Processing,,Alanine Aminotransferase Concentration in Serum/Plasma (Denormalized),ALT_LBORRESU,LBORRESU,C67365,,Unit,,8,Y,text,20,,N,N,,C71620,UNIT,U/L;ukat/L;IU/L;nkat/L,U/L;ukat/L;IU/L;nkat/L,Single,,,LBORRESU;LBTESTCD;LBTEST,LBORRESU when LBTESTCD = ALT
2026-06-30,C64433,ALTSERPL,CDASHIG,2-3,,LB,ALTSERPL_DENORMALIZED,Denormalized,Local Processing,,Alanine Aminotransferase Concentration in Serum/Plasma (Denormalized),ALT_LBORNRLO,LBORNRLO,,,Normal Range Lower Limit,,9,N,decimal,8,2.0,N,N,,,,,,,,,LBORNRLO,LBORNRLO
2026-06-30,C64433,ALTSERPL,CDASHIG,2-3,,LB,ALTSERPL_DENORMALIZED,Denormalized,Local Processing,,Alanine Aminotransferase Concentration in Serum/Plasma (Denormalized),ALT_LBORNRHI,LBORNRHI,,,Normal Range Upper Limit,,10,N,decimal,8,2.0,N,N,,,,,,,,,LBORNRHI,LBORNRHI
2026-06-30,C64433,ALTSERPL,CDASHIG,2-3,,LB,ALTSERPL_DENORMALIZED,Denormalized,Local Processing,,Alanine Aminotransferase Concentration in Serum/Plasma (Denormalized),ALT_LBCLSIG,LBCLSIG,,Was this result clinically significant?,,,11,N,text,1,,N,N,,C66742,NY,N;Y,No;Yes,Single,,,LBCLSIG,LBCLSIG
2026-06-30,C74797,ANISOBLD,CDASHIG,2-3,,LB,ANISOBLD_DENORMALIZED,Denormalized,Local Processing,,Anisocytes in Blood (Denormalized),ANISO_LBCAT,LBCAT,,,Lab Panel Name,,1,N,text,100,,Y,N,,,,,,,HEMATOLOGY,,LBCAT,LBCAT = HEMATOLOGY
2026-06-30,C74797,ANISOBLD,CDASHIG,2-3,,LB,ANISOBLD_DENORMALIZED,Denormalized,Local Processing,,Anisocytes in Blood (Denormalized),ANISO_LBSCAT,LBSCAT,,,Lab Sub-Panel Name,,2,N,text,100,,Y,N,,,,,,,,,LBSCAT,LBSCAT
2026-06-30,C74797,ANISOBLD,CDASHIG,2-3,,LB,ANISOBLD_DENORMALIZED,Denormalized,Local Processing,,Anisocytes in Blood (Denormalized),ANISO_LBNAM,LBNAM,,What was the name of the laboratory used?,,,3,N,text,200,,N,N,,,,,,,,,LBNAM,LBNAM
2026-06-30,C74797,ANISOBLD,CDASHIG,2-3,,LB,ANISOBLD_DENORMALIZED,Denormalized,Local Processing,,Anisocytes in Blood (Denormalized),ANISO_LBDAT,LBDAT,C82515,,Specimen Collection Date,,4,N,date,10,,N,N,,,,,,,,,LBDTC,LBDTC
2026-06-30,C74797,ANISOBLD,CDASHIG,2-3,,LB,ANISOBLD_DENORMALIZED,Denormalized,Local Processing,,Anisocytes in Blood (Denormalized),ANISO_LBSPEC,LBSPEC,C70713,,Specimen Material,,5,Y,text,100,,N,N,,C78734,SPECTYPE,,,,BLOOD,C12434,LBSPEC,LBSPEC = BLOOD
2026-06-30,C74797,ANISOBLD,CDASHIG,2-3,,LB,ANISOBLD_DENORMALIZED,Denormalized,Local Processing,,Anisocytes in Blood (Denormalized),ANISO_LBFAST,LBFAST,C93566,Was the subject fasting?,,,6,N,text,1,,N,N,,C66742,NY,N;Y,No;Yes,Single,,,LBFAST,LBFAST
2026-06-30,C74797,ANISOBLD,CDASHIG,2-3,,LB,ANISOBLD_DENORMALIZED,Denormalized,Local Processing,,Anisocytes in Blood (Denormalized),ANISO_LBORRES,LBORRES,C70856,,Anisocytes,,7,Y,text,200,,N,N,,,,,,,,,LBORRES;LBTESTCD;LBTEST,LBORRES when LBTESTCD = ANISO
2026-06-30,C74797,ANISOBLD,CDASHIG,2-3,,LB,ANISOBLD_DENORMALIZED,Denormalized,Local Processing,,Anisocytes in Blood (Denormalized),ANISO_LBCLSIG,LBCLSIG,,Was this result clinically significant?,,,8,N,text,1,,N,N,,C66742,NY,N;Y,No;Yes,Single,,,LBCLSIG,LBCLSIG
2026-06-30,C64467,ASTSERPL,CDASHIG,2-3,,LB,ASTSERPL_DENORMALIZED,Denormalized,Local Processing,,Aspartate Aminotransferase in Serum/Plasma (Denormalized),AST_LBCAT,LBCAT,,,Lab Panel Name,,1,N,text,100,,Y,N,,,,,,,CHEMISTRY,,LBCAT,LBCAT = CHEMISTRY
2026-06-30,C64467,ASTSERPL,CDASHIG,2-3,,LB,ASTSERPL_DENORMALIZED,Denormalized,Local Processing,,Aspartate Aminotransferase in Serum/Plasma (Denormalized),AST_LBSCAT,LBSCAT,,,Lab Sub-Panel Name,,2,N,text,100,,Y,N,,,,,,,,,LBSCAT,LBSCAT
2026-06-30,C64467,ASTSERPL,CDASHIG,2-3,,LB,ASTSERPL_DENORMALIZED,Denormalized,Local Processing,,Aspartate Aminotransferase in Serum/Plasma (Denormalized),AST_LBNAM,LBNAM,,What was the name of the laboratory used?,,,3,N,text,200,,N,N,,,,,,,,,LBNAM,LBNAM
2026-06-30,C64467,ASTSERPL,CDASHIG,2-3,,LB,ASTSERPL_DENORMALIZED,Denormalized,Local Processing,,Aspartate Aminotransferase in Serum/Plasma (Denormalized),AST_LBDAT,LBDAT,C82515,,Specimen Collection Date,,4,N,date,10,,N,N,,,,,,,,,LBDTC,LBDTC
2026-06-30,C64467,ASTSERPL,CDASHIG,2-3,,LB,ASTSERPL_DENORMALIZED,Denormalized,Local Processing,,Aspartate Aminotransferase in Serum/Plasma (Denormalized),AST_LBSPEC,LBSPEC,C70713,,Specimen Material,,5,Y,text,100,,N,N,,C78734,SPECTYPE,,,,SERUM OR PLASMA,C105706,LBSPEC,LBSPEC
2026-06-30,C64467,ASTSERPL,CDASHIG,2-3,,LB,ASTSERPL_DENORMALIZED,Denormalized,Local Processing,,Aspartate Aminotransferase in Serum/Plasma (Denormalized),AST_LBFAST,LBFAST,C93566,Was the subject fasting?,,,6,N,text,1,,N,N,,C66742,NY,N;Y,No;Yes,Single,,,LBFAST,LBFAST
2026-06-30,C64467,ASTSERPL,CDASHIG,2-3,,LB,ASTSERPL_DENORMALIZED,Denormalized,Local Processing,,Aspartate Aminotransferase in Serum/Plasma (Denormalized),AST_LBORRES,LBORRES,C70856,,Aspartate Aminotransferase,,7,Y,decimal,8,2.0,N,N,,,,,,,,,LBORRES;LBTESTCD;LBTEST,LBORRES when LBTESTCD = AST
2026-06-30,C64467,ASTSERPL,CDASHIG,2-3,,LB,ASTSERPL_DENORMALIZED,Denormalized,Local Processing,,Aspartate Aminotransferase in Serum/Plasma (Denormalized),AST_LBORRESU,LBORRESU,C67365,,Unit,,8,Y,text,20,,N,N,,C71620,UNIT,U/L;ukat/L;IU/L,U/L;ukat/L;IU/L,Single,,,LBORRESU;LBTESTCD;LBTEST,LBORRESU when LBTESTCD = AST
2026-06-30,C64467,ASTSERPL,CDASHIG,2-3,,LB,ASTSERPL_DENORMALIZED,Denormalized,Local Processing,,Aspartate Aminotransferase in Serum/Plasma (Denormalized),AST_LBORNRLO,LBORNRLO,,,Normal Range Lower Limit,,9,N,decimal,8,2.0,N,N,,,,,,,,,LBORNRLO,LBORNRLO
2026-06-30,C64467,ASTSERPL,CDASHIG,2-3,,LB,ASTSERPL_DENORMALIZED,Denormalized,Local Processing,,Aspartate Aminotransferase in Serum/Plasma (Denormalized),AST_LBORNRHI,LBORNRHI,,,Normal Range Upper Limit,,10,N,decimal,8,2.0,N,N,,,,,,,,,LBORNRHI,LBORNRHI
2026-06-30,C64467,ASTSERPL,CDASHIG,2-3,,LB,ASTSERPL_DENORMALIZED,Denormalized,Local Processing,,Aspartate Aminotransferase in Serum/Plasma (Denormalized),AST_LBCLSIG,LBCLSIG,,Was this result clinically significant?,,,11,N,text,1,,N,N,,C66742,NY,N;Y,No;Yes,Single,,,LBCLSIG,LBCLSIG
2026-06-30,C64470,BASOBLD,CDASHIG,2-3,,LB,BASOBLD_DENORMALIZED,Denormalized,Local Processing,,Basophil Count in Blood (Denormalized),BASO_LBCAT,LBCAT,,,Lab Panel Name,,1,N,text,100,,Y,N,,,,,,,HEMATOLOGY,,LBCAT,LBCAT = HEMATOLOGY
2026-06-30,C64470,BASOBLD,CDASHIG,2-3,,LB,BASOBLD_DENORMALIZED,Denormalized,Local Processing,,Basophil Count in Blood (Denormalized),BASO_LBSCAT,LBSCAT,,,Lab Sub-Panel Name,,2,N,text,100,,Y,N,,,,,,,,,LBSCAT,LBSCAT
2026-06-30,C64470,BASOBLD,CDASHIG,2-3,,LB,BASOBLD_DENORMALIZED,Denormalized,Local Processing,,Basophil Count in Blood (Denormalized),BASO_LBNAM,LBNAM,,What was the name of the laboratory used?,,,3,N,text,200,,N,N,,,,,,,,,LBNAM,LBNAM
2026-06-30,C64470,BASOBLD,CDASHIG,2-3,,LB,BASOBLD_DENORMALIZED,Denormalized,Local Processing,,Basophil Count in Blood (Denormalized),BASO_LBDAT,LBDAT,C82515,,Specimen Collection Date,,4,N,date,10,,N,N,,,,,,,,,LBDTC,LBDTC
2026-06-30,C64470,BASOBLD,CDASHIG,2-3,,LB,BASOBLD_DENORMALIZED,Denormalized,Local Processing,,Basophil Count in Blood (Denormalized),BASO_LBSPEC,LBSPEC,C70713,,Specimen Material,,5,Y,text,100,,N,N,,C78734,SPECTYPE,,,,BLOOD,C12434,LBSPEC,LBSPEC = BLOOD
2026-06-30,C64470,BASOBLD,CDASHIG,2-3,,LB,BASOBLD_DENORMALIZED,Denormalized,Local Processing,,Basophil Count in Blood (Denormalized),BASO_LBFAST,LBFAST,C93566,Was the subject fasting?,,,6,N,text,1,,N,N,,C66742,NY,N;Y,No;Yes,Single,,,LBFAST,LBFAST
2026-06-30,C64470,BASOBLD,CDASHIG,2-3,,LB,BASOBLD_DENORMALIZED,Denormalized,Local Processing,,Basophil Count in Blood (Denormalized),BASO_LBORRES,LBORRES,C70856,,Basophils,,7,Y,decimal,8,2.0,N,N,,,,,,,,,LBORRES;LBTESTCD;LBTEST,LBORRES when LBTESTCD = BASO
2026-06-30,C64470,BASOBLD,CDASHIG,2-3,,LB,BASOBLD_DENORMALIZED,Denormalized,Local Processing,,Basophil Count in Blood (Denormalized),BASO_LBORRESU,LBORRESU,C67391,,Unit,,8,Y,text,20,,N,N,,C71620,UNIT,10^9/L;10^6/L,10^9/L;10^6/L,Single,,,LBORRESU;LBTESTCD;LBTEST,LBORRESU when LBTESTCD = BASO
2026-06-30,C64470,BASOBLD,CDASHIG,2-3,,LB,BASOBLD_DENORMALIZED,Denormalized,Local Processing,,Basophil Count in Blood (Denormalized),BASO_LBORNRLO,LBORNRLO,,,Normal Range Lower Limit,,9,N,decimal,8,2.0,N,N,,,,,,,,,LBORNRLO,LBORNRLO
2026-06-30,C64470,BASOBLD,CDASHIG,2-3,,LB,BASOBLD_DENORMALIZED,Denormalized,Local Processing,,Basophil Count in Blood (Denormalized),BASO_LBORNRHI,LBORNRHI,,,Normal Range Upper Limit,,10,N,decimal,8,2.0,N,N,,,,,,,,,LBORNRHI,LBORNRHI
2026-06-30,C64470,BASOBLD,CDASHIG,2-3,,LB,BASOBLD_DENORMALIZED,Denormalized,Local Processing,,Basophil Count in Blood (Denormalized),BASO_LBCLSIG,LBCLSIG,,Was this result clinically significant?,,,11,N,text,1,,N,N,,C66742,NY,N;Y,No;Yes,Single,,,LBCLSIG,LBCLSIG
2026-06-30,C74667,BICARBBLD,CDASHIG,2-3,,LB,BICARBBLD_DENORMALIZED,Denormalized,Local Processing,,Bicarbonate Concentration in Blood (Denormalized),BICARB_LBCAT,LBCAT,,,Lab Panel Name,,1,N,text,100,,Y,N,,,,,,,CHEMISTRY,,LBCAT,LBCAT = CHEMISTRY
2026-06-30,C74667,BICARBBLD,CDASHIG,2-3,,LB,BICARBBLD_DENORMALIZED,Denormalized,Local Processing,,Bicarbonate Concentration in Blood (Denormalized),BICARB_LBSCAT,LBSCAT,,,Lab Sub-Panel Name,,2,N,text,100,,Y,N,,,,,,,,,LBSCAT,LBSCAT
2026-06-30,C74667,BICARBBLD,CDASHIG,2-3,,LB,BICARBBLD_DENORMALIZED,Denormalized,Local Processing,,Bicarbonate Concentration in Blood (Denormalized),BICARB_LBNAM,LBNAM,,What was the name of the laboratory used?,,,3,N,text,200,,N,N,,,,,,,,,LBNAM,LBNAM
2026-06-30,C74667,BICARBBLD,CDASHIG,2-3,,LB,BICARBBLD_DENORMALIZED,Denormalized,Local Processing,,Bicarbonate Concentration in Blood (Denormalized),BICARB_LBDAT,LBDAT,C82515,,Specimen Collection Date,,4,N,date,10,,N,N,,,,,,,,,LBDTC,LBDTC
2026-06-30,C74667,BICARBBLD,CDASHIG,2-3,,LB,BICARBBLD_DENORMALIZED,Denormalized,Local Processing,,Bicarbonate Concentration in Blood (Denormalized),BICARB_LBSPEC,LBSPEC,C70713,,Specimen Material,,5,Y,text,100,,N,N,,C78734,SPECTYPE,,,,BLOOD,C12434,LBSPEC,LBSPEC = BLOOD
2026-06-30,C74667,BICARBBLD,CDASHIG,2-3,,LB,BICARBBLD_DENORMALIZED,Denormalized,Local Processing,,Bicarbonate Concentration in Blood (Denormalized),BICARB_LBFAST,LBFAST,C93566,Was the subject fasting?,,,6,N,text,1,,N,N,,C66742,NY,N;Y,No;Yes,Single,,,LBFAST,LBFAST
2026-06-30,C74667,BICARBBLD,CDASHIG,2-3,,LB,BICARBBLD_DENORMALIZED,Denormalized,Local Processing,,Bicarbonate Concentration in Blood (Denormalized),BICARB_LBORRES,LBORRES,C70856,,Bicarbonate,,7,Y,decimal,8,2.0,N,N,,,,,,,,,LBORRES;LBTESTCD;LBTEST,LBORRES when LBTESTCD = BICARB
2026-06-30,C74667,BICARBBLD,CDASHIG,2-3,,LB,BICARBBLD_DENORMALIZED,Denormalized,Local Processing,,Bicarbonate Concentration in Blood (Denormalized),BICARB_LBORRESU,LBORRESU,C64567,,Unit,,8,Y,text,20,,N,N,,C71620,UNIT,mEq/L;mEq/dL;mmol/L,mEq/L;mEq/dL;mmol/L,Single,,,LBORRESU;LBTESTCD;LBTEST,LBORRESU when LBTESTCD = BICARB
2026-06-30,C74667,BICARBBLD,CDASHIG,2-3,,LB,BICARBBLD_DENORMALIZED,Denormalized,Local Processing,,Bicarbonate Concentration in Blood (Denormalized),BICARB_LBORNRLO,LBORNRLO,,,Normal Range Lower Limit,,9,N,decimal,8,2.0,N,N,,,,,,,,,LBORNRLO,LBORNRLO
2026-06-30,C74667,BICARBBLD,CDASHIG,2-3,,LB,BICARBBLD_DENORMALIZED,Denormalized,Local Processing,,Bicarbonate Concentration in Blood (Denormalized),BICARB_LBORNRHI,LBORNRHI,,,Normal Range Upper Limit,,10,N,decimal,8,2.0,N,N,,,,,,,,,LBORNRHI,LBORNRHI
2026-06-30,C74667,BICARBBLD,CDASHIG,2-3,,LB,BICARBBLD_DENORMALIZED,Denormalized,Local Processing,,Bicarbonate Concentration in Blood (Denormalized),BICARB_LBCLSIG,LBCLSIG,,Was this result clinically significant?,,,11,N,text,1,,N,N,,C66742,NY,N;Y,No;Yes,Single,,,LBCLSIG,LBCLSIG
2026-06-30,C38037,BILISERPL,CDASHIG,2-3,,LB,BILISERPL_DENORMALIZED,Denormalized,Local Processing,,Bilirubin Concentration in Serum or Plasma (Denormalized),BILI_LBCAT,LBCAT,,,Lab Panel Name,,1,N,text,100,,Y,N,,,,,,,CHEMISTRY,,LBCAT,LBCAT = CHEMISTRY
2026-06-30,C38037,BILISERPL,CDASHIG,2-3,,LB,BILISERPL_DENORMALIZED,Denormalized,Local Processing,,Bilirubin Concentration in Serum or Plasma (Denormalized),BILI_LBSCAT,LBSCAT,,,Lab Sub-Panel Name,,2,N,text,100,,Y,N,,,,,,,,,LBSCAT,LBSCAT
2026-06-30,C38037,BILISERPL,CDASHIG,2-3,,LB,BILISERPL_DENORMALIZED,Denormalized,Local Processing,,Bilirubin Concentration in Serum or Plasma (Denormalized),BILI_LBNAM,LBNAM,,What was the name of the laboratory used?,,,3,N,text,200,,N,N,,,,,,,,,LBNAM,LBNAM
2026-06-30,C38037,BILISERPL,CDASHIG,2-3,,LB,BILISERPL_DENORMALIZED,Denormalized,Local Processing,,Bilirubin Concentration in Serum or Plasma (Denormalized),BILI_LBDAT,LBDAT,C82515,,Specimen Collection Date,,4,N,date,10,,N,N,,,,,,,,,LBDTC,LBDTC
2026-06-30,C38037,BILISERPL,CDASHIG,2-3,,LB,BILISERPL_DENORMALIZED,Denormalized,Local Processing,,Bilirubin Concentration in Serum or Plasma (Denormalized),BILI_LBSPEC,LBSPEC,C70713,,Specimen Material,,5,Y,text,100,,N,N,,C78734,SPECTYPE,,,,SERUM OR PLASMA,C105706,LBSPEC,LBSPEC
2026-06-30,C38037,BILISERPL,CDASHIG,2-3,,LB,BILISERPL_DENORMALIZED,Denormalized,Local Processing,,Bilirubin Concentration in Serum or Plasma (Denormalized),BILI_LBFAST,LBFAST,C93566,Was the subject fasting?,,,6,N,text,1,,N,N,,C66742,NY,N;Y,No;Yes,Single,,,LBFAST,LBFAST
2026-06-30,C38037,BILISERPL,CDASHIG,2-3,,LB,BILISERPL_DENORMALIZED,Denormalized,Local Processing,,Bilirubin Concentration in Serum or Plasma (Denormalized),BILI_LBORRES,LBORRES,C70856,,Bilirubin,,7,Y,decimal,8,2.0,N,N,,,,,,,,,LBORRES;LBTESTCD;LBTEST,LBORRES when LBTESTCD = BILI
2026-06-30,C38037,BILISERPL,CDASHIG,2-3,,LB,BILISERPL_DENORMALIZED,Denormalized,Local Processing,,Bilirubin Concentration in Serum or Plasma (Denormalized),BILI_LBORRESU,LBORRESU,C48207,,Unit,,8,Y,text,20,,N,N,,C71620,UNIT,mg/dL;mg/L;mmol/L;umol/L,mg/dL;mg/L;mmol/L;umol/L,Single,,,LBORRESU;LBTESTCD;LBTEST,LBORRESU when LBTESTCD = BILI
2026-06-30,C38037,BILISERPL,CDASHIG,2-3,,LB,BILISERPL_DENORMALIZED,Denormalized,Local Processing,,Bilirubin Concentration in Serum or Plasma (Denormalized),BILI_LBORNRLO,LBORNRLO,,,Normal Range Lower Limit,,9,N,decimal,8,2.0,N,N,,,,,,,,,LBORNRLO,LBORNRLO
2026-06-30,C38037,BILISERPL,CDASHIG,2-3,,LB,BILISERPL_DENORMALIZED,Denormalized,Local Processing,,Bilirubin Concentration in Serum or Plasma (Denormalized),BILI_LBORNRHI,LBORNRHI,,,Normal Range Upper Limit,,10,N,decimal,8,2.0,N,N,,,,,,,,,LBORNRHI,LBORNRHI
2026-06-30,C38037,BILISERPL,CDASHIG,2-3,,LB,BILISERPL_DENORMALIZED,Denormalized,Local Processing,,Bilirubin Concentration in Serum or Plasma (Denormalized),BILI_LBCLSIG,LBCLSIG,,Was this result clinically significant?,,,11,N,text,1,,N,N,,C66742,NY,N;Y,No;Yes,Single,,,LBCLSIG,LBCLSIG
2026-06-30,C38037,BILIURINPRES,CDASHIG,2-3,,LB,BILIURINPRES_DENORMALIZED,Denormalized,Local Processing,,Bilirubin Presence in Urine (Denormalized),BILI_LBCAT,LBCAT,,,Lab Panel Name,,1,N,text,100,,Y,N,,,,,,,CHEMISTRY,,LBCAT,LBCAT
2026-06-30,C38037,BILIURINPRES,CDASHIG,2-3,,LB,BILIURINPRES_DENORMALIZED,Denormalized,Local Processing,,Bilirubin Presence in Urine (Denormalized),BILI_LBSCAT,LBSCAT,,,Lab Sub-Panel Name,,2,N,text,100,,Y,N,,,,,,,,,LBSCAT,LBSCAT
2026-06-30,C38037,BILIURINPRES,CDASHIG,2-3,,LB,BILIURINPRES_DENORMALIZED,Denormalized,Local Processing,,Bilirubin Presence in Urine (Denormalized),BILI_LBNAM,LBNAM,,What was the name of the laboratory used?,,,3,N,text,200,,N,N,,,,,,,,,LBNAM,LBNAM
2026-06-30,C38037,BILIURINPRES,CDASHIG,2-3,,LB,BILIURINPRES_DENORMALIZED,Denormalized,Local Processing,,Bilirubin Presence in Urine (Denormalized),BILI_LBDAT,LBDAT,C82515,,Specimen Collection Date,,4,N,date,10,,N,N,,,,,,,,,LBDTC,LBDTC
2026-06-30,C38037,BILIURINPRES,CDASHIG,2-3,,LB,BILIURINPRES_DENORMALIZED,Denormalized,Local Processing,,Bilirubin Presence in Urine (Denormalized),BILI_LBSPEC,LBSPEC,C70713,,Specimen Material,,5,Y,text,100,,N,N,,C78734,SPECTYPE,,,,URINE,C13283,LBSPEC,LBSPEC
2026-06-30,C38037,BILIURINPRES,CDASHIG,2-3,,LB,BILIURINPRES_DENORMALIZED,Denormalized,Local Processing,,Bilirubin Presence in Urine (Denormalized),BILI_LBFAST,LBFAST,C93566,Was the subject fasting?,,,6,N,text,1,,N,N,,C66742,NY,N;Y,No;Yes,Single,,,LBFAST,LBFAST
2026-06-30,C38037,BILIURINPRES,CDASHIG,2-3,,LB,BILIURINPRES_DENORMALIZED,Denormalized,Local Processing,,Bilirubin Presence in Urine (Denormalized),BILI_LBORRES,LBORRES,C70856,,Bilirubin,,7,Y,text,100,,N,N,,,,,,,,,LBORRES;LBTESTCD;LBTEST,LBORRES when LBTESTCD = BILI
2026-06-30,C38037,BILIURINPRES,CDASHIG,2-3,,LB,BILIURINPRES_DENORMALIZED,Denormalized,Local Processing,,Bilirubin Presence in Urine (Denormalized),BILI_LBORNRLO,LBORNRLO,,,Normal Range Lower Limit,,8,N,decimal,8,2.0,N,N,,,,,,,,,LBORNRLO,LBORNRLO
2026-06-30,C38037,BILIURINPRES,CDASHIG,2-3,,LB,BILIURINPRES_DENORMALIZED,Denormalized,Local Processing,,Bilirubin Presence in Urine (Denormalized),BILI_LBORNRHI,LBORNRHI,,,Normal Range Upper Limit,,9,N,decimal,8,2.0,N,N,,,,,,,,,LBORNRHI,LBORNRHI
2026-06-30,C38037,BILIURINPRES,CDASHIG,2-3,,LB,BILIURINPRES_DENORMALIZED,Denormalized,Local Processing,,Bilirubin Presence in Urine (Denormalized),BILI_LBCLSIG,LBCLSIG,,Was this result clinically significant?,,,10,N,text,1,,N,N,,C66742,NY,N;Y,No;Yes,Single,,,LBCLSIG,LBCLSIG
2026-06-30,C38037,BILIURIN,CDASHIG,2-3,,LB,BILIURIN_DENORMALIZED,Denormalized,Local Processing,,Bilirubin Concentration in Urine (Denormalized),BILI_LBCAT,LBCAT,,,Lab Panel Name,,1,N,text,100,,Y,N,,,,,,,CHEMISTRY,,LBCAT,LBCAT = CHEMISTRY
2026-06-30,C38037,BILIURIN,CDASHIG,2-3,,LB,BILIURIN_DENORMALIZED,Denormalized,Local Processing,,Bilirubin Concentration in Urine (Denormalized),BILI_LBSCAT,LBSCAT,,,Lab Sub-Panel Name,,2,N,text,100,,Y,N,,,,,,,,,LBSCAT,LBSCAT
2026-06-30,C38037,BILIURIN,CDASHIG,2-3,,LB,BILIURIN_DENORMALIZED,Denormalized,Local Processing,,Bilirubin Concentration in Urine (Denormalized),BILI_LBNAM,LBNAM,,What was the name of the laboratory used?,,,3,N,text,200,,N,N,,,,,,,,,LBNAM,LBNAM
2026-06-30,C38037,BILIURIN,CDASHIG,2-3,,LB,BILIURIN_DENORMALIZED,Denormalized,Local Processing,,Bilirubin Concentration in Urine (Denormalized),BILI_LBDAT,LBDAT,C82515,,Specimen Collection Date,,4,N,date,10,,N,N,,,,,,,,,LBDTC,LBDTC
2026-06-30,C38037,BILIURIN,CDASHIG,2-3,,LB,BILIURIN_DENORMALIZED,Denormalized,Local Processing,,Bilirubin Concentration in Urine (Denormalized),BILI_LBSPEC,LBSPEC,C70713,,Specimen Material,,5,Y,text,100,,N,N,,C78734,SPECTYPE,,,,URINE,C13283,LBSPEC,LBSPEC = URINE
2026-06-30,C38037,BILIURIN,CDASHIG,2-3,,LB,BILIURIN_DENORMALIZED,Denormalized,Local Processing,,Bilirubin Concentration in Urine (Denormalized),BILI_LBFAST,LBFAST,C93566,Was the subject fasting?,,,6,N,text,1,,N,N,,C66742,NY,N;Y,No;Yes,Single,,,LBFAST,LBFAST
2026-06-30,C38037,BILIURIN,CDASHIG,2-3,,LB,BILIURIN_DENORMALIZED,Denormalized,Local Processing,,Bilirubin Concentration in Urine (Denormalized),BILI_LBORRES,LBORRES,C70856,,Bilirubin,,7,Y,decimal,8,2.0,N,N,,,,,,,,,LBORRES;LBTESTCD;LBTEST,LBORRES when LBTESTCD = BILI
2026-06-30,C38037,BILIURIN,CDASHIG,2-3,,LB,BILIURIN_DENORMALIZED,Denormalized,Local Processing,,Bilirubin Concentration in Urine (Denormalized),BILI_LBORRESU,LBORRESU,C48207,,Unit,,8,Y,text,20,,N,N,,C71620,UNIT,mg/dL;mg/L;mmol/L;umol/L,mg/dL;mg/L;mmol/L;umol/L,Single,,,LBORRESU;LBTESTCD;LBTEST,LBORRESU when LBTESTCD = BILI
2026-06-30,C38037,BILIURIN,CDASHIG,2-3,,LB,BILIURIN_DENORMALIZED,Denormalized,Local Processing,,Bilirubin Concentration in Urine (Denormalized),BILI_LBORNRLO,LBORNRLO,,,Normal Range Lower Limit,,9,N,decimal,8,2.0,N,N,,,,,,,,,LBORNRLO,LBORNRLO
2026-06-30,C38037,BILIURIN,CDASHIG,2-3,,LB,BILIURIN_DENORMALIZED,Denormalized,Local Processing,,Bilirubin Concentration in Urine (Denormalized),BILI_LBORNRHI,LBORNRHI,,,Normal Range Upper Limit,,10,N,decimal,8,2.0,N,N,,,,,,,,,LBORNRHI,LBORNRHI
2026-06-30,C38037,BILIURIN,CDASHIG,2-3,,LB,BILIURIN_DENORMALIZED,Denormalized,Local Processing,,Bilirubin Concentration in Urine (Denormalized),BILI_LBCLSIG,LBCLSIG,,Was this result clinically significant?,,,11,N,text,1,,N,N,,C66742,NY,N;Y,No;Yes,Single,,,LBCLSIG,LBCLSIG
2026-06-30,C174314,BLYCEBLD,CDASHIG,2-3,,LB,BLYCEBLD_DENORMALIZED,Denormalized,Local Processing,,B-Lymphocytes in Blood (Denormalized),BLYCE_LBCAT,LBCAT,,,Lab Panel Name,,1,N,text,100,,Y,N,,,,,,,HEMATOLOGY,,LBCAT,LBCAT = HEMATOLOGY
2026-06-30,C174314,BLYCEBLD,CDASHIG,2-3,,LB,BLYCEBLD_DENORMALIZED,Denormalized,Local Processing,,B-Lymphocytes in Blood (Denormalized),BLYCE_LBSCAT,LBSCAT,,,Lab Sub-Panel Name,,2,N,text,100,,Y,N,,,,,,,,,LBSCAT,LBSCAT
2026-06-30,C174314,BLYCEBLD,CDASHIG,2-3,,LB,BLYCEBLD_DENORMALIZED,Denormalized,Local Processing,,B-Lymphocytes in Blood (Denormalized),BLYCE_LBNAM,LBNAM,,What was the name of the laboratory used?,,,3,N,text,200,,N,N,,,,,,,,,LBNAM,LBNAM
2026-06-30,C174314,BLYCEBLD,CDASHIG,2-3,,LB,BLYCEBLD_DENORMALIZED,Denormalized,Local Processing,,B-Lymphocytes in Blood (Denormalized),BLYCE_LBDAT,LBDAT,C82515,,Specimen Collection Date,,4,N,date,10,,N,N,,,,,,,,,LBDTC,LBDTC
2026-06-30,C174314,BLYCEBLD,CDASHIG,2-3,,LB,BLYCEBLD_DENORMALIZED,Denormalized,Local Processing,,B-Lymphocytes in Blood (Denormalized),BLYCE_LBSPEC,LBSPEC,C70713,,Specimen Material,,5,Y,text,100,,N,N,,C78734,SPECTYPE,,,,BLOOD,C12434,LBSPEC,LBSPEC = BLOOD
2026-06-30,C174314,BLYCEBLD,CDASHIG,2-3,,LB,BLYCEBLD_DENORMALIZED,Denormalized,Local Processing,,B-Lymphocytes in Blood (Denormalized),BLYCE_LBFAST,LBFAST,C93566,Was the subject fasting?,,,6,N,text,1,,N,N,,C66742,NY,N;Y,No;Yes,Single,,,LBFAST,LBFAST
2026-06-30,C174314,BLYCEBLD,CDASHIG,2-3,,LB,BLYCEBLD_DENORMALIZED,Denormalized,Local Processing,,B-Lymphocytes in Blood (Denormalized),BLYCE_LBORRES,LBORRES,C70856,,B-Lymphocytes,,7,Y,decimal,8,2.0,N,N,,,,,,,,,LBORRES;LBTESTCD;LBTEST,LBORRES when LBTESTCD = BLYCE
2026-06-30,C174314,BLYCEBLD,CDASHIG,2-3,,LB,BLYCEBLD_DENORMALIZED,Denormalized,Local Processing,,B-Lymphocytes in Blood (Denormalized),BLYCE_LBORRESU,LBORRESU,C67391,,Unit,,8,Y,text,20,,N,N,,C71620,UNIT,10^9/L;10^6/L,10^9/L;10^6/L,Single,,,LBORRESU;LBTESTCD;LBTEST,LBORRESU when LBTESTCD = BLYCE
2026-06-30,C174314,BLYCEBLD,CDASHIG,2-3,,LB,BLYCEBLD_DENORMALIZED,Denormalized,Local Processing,,B-Lymphocytes in Blood (Denormalized),BLYCE_LBORNRLO,LBORNRLO,,,Normal Range Lower Limit,,9,N,decimal,8,2.0,N,N,,,,,,,,,LBORNRLO,LBORNRLO
2026-06-30,C174314,BLYCEBLD,CDASHIG,2-3,,LB,BLYCEBLD_DENORMALIZED,Denormalized,Local Processing,,B-Lymphocytes in Blood (Denormalized),BLYCE_LBORNRHI,LBORNRHI,,,Normal Range Upper Limit,,10,N,decimal,8,2.0,N,N,,,,,,,,,LBORNRHI,LBORNRHI
2026-06-30,C174314,BLYCEBLD,CDASHIG,2-3,,LB,BLYCEBLD_DENORMALIZED,Denormalized,Local Processing,,B-Lymphocytes in Blood (Denormalized),BLYCE_LBCLSIG,LBCLSIG,,Was this result clinically significant?,,,11,N,text,1,,N,N,,C66742,NY,N;Y,No;Yes,Single,,,LBCLSIG,LBCLSIG
2026-06-30,C64488,CABLD,CDASHIG,2-3,,LB,CABLD_DENORMALIZED,Denormalized,Local Processing,,Calcium Concentration in Blood (Denormalized),CA_LBCAT,LBCAT,,,Lab Panel Name,,1,N,text,100,,Y,N,,,,,,,CHEMISTRY,,LBCAT,LBCAT = CHEMISTRY
