packageDate: "2026-06-30"
packageType: crf
crfSpecializationId: CMPRIORBREASTCANCER_NORMALIZED
shortName: Concomitant Therapy Breast Cancer Prior Treatment (Normalized)
standard: CDASHIG
standardStartVersion: "2-1"
standardEndVersion: ""
implementationOption: Normalized
domain: CM
biomedicalConceptId: C53630
sdtmDatasetSpecializationId: CMPRIORBREASTCANCER
items:
  - name: CMCAT
    variableName: CMCAT
    dataElementConceptId: C25372
    prompt: Concomitant Medication Category
    orderNumber: 1
    mandatoryVariable: false
    dataType: text
    length: 200
    displayHidden: true 
    derivedVariable: false
    prepopulatedValue:
      value: "ANTI-CANCER THERAPY"
    sdtmTarget:
      sdtmAnnotation: "CMCAT = ANTI-CANCER THERAPY"
      sdtmVariables:
        -  "CMCAT"
  - name: CMINDC
    variableName: CMINDC
    dataElementConceptId: C83085
    prompt: Indication
    orderNumber: 2
    mandatoryVariable: false
    dataType: text
    length: 200
    displayHidden: true 
    derivedVariable: false
    prepopulatedValue:
      value: "BREAST CANCER"
    sdtmTarget:
      sdtmAnnotation: "CMINDC = BREAST CANCER"
      sdtmVariables:
        -  "CMINDC"
  - name: CMGRPID
    variableName: CMGRPID
    prompt: Group Identifier
    orderNumber: 3
    mandatoryVariable: true 
    dataType: text
    length: 20
    displayHidden: false
    derivedVariable: false
    valueList:
      - displayValue: "1"
        value: "1"
      - displayValue: "2"
        value: "2"
    selectionType: Single
    sdtmTarget:
      sdtmAnnotation: "CMGRPID"
      sdtmVariables:
        -  "CMGRPID"
  - name: CMTRT
    variableName: CMTRT
    dataElementConceptId: C70902
    prompt: Concomitant Medication
    orderNumber: 4
    mandatoryVariable: true 
    dataType: text
    length: 200
    displayHidden: false
    derivedVariable: false
    valueList:
      - displayValue: "Abemaciclib"
        value: "ABEMACICLIB"
      - displayValue: "Verzenio"
        value: "VERZENIO"
      - displayValue: "Anastrozole"
        value: "ANASTROZOLE"
      - displayValue: "Arimidex"
        value: "ARIMIDEX"
      - displayValue: "Capecitabine"
        value: "CAPECITABINE"
      - displayValue: "Xeloda"
        value: "XELODA"
      - displayValue: "Cyclophosphamide"
        value: "CYCLOPHOSPHAMIDE"
      - displayValue: "Cytoxan"
        value: "CYTOXAN"
      - displayValue: "Neosar"
        value: "NEOSAR"
      - displayValue: "Docetaxel"
        value: "DOCETAXEL"
      - displayValue: "Taxotere"
        value: "TAXOTERE"
      - displayValue: "Doxorubicin Adriamycin"
        value: "DOXORUBICIN ADRIAMYCIN"
      - displayValue: "Everolimus"
        value: "EVEROLIMUS"
      - displayValue: "Afinitor"
        value: "AFINITOR"
      - displayValue: "Exemestane"
        value: "EXEMESTANE"
      - displayValue: "Aromasin"
        value: "AROMASIN"
      - displayValue: "Fulvestrant"
        value: "FULVESTRANT"
      - displayValue: "Faslodex"
        value: "FASLODEX"
      - displayValue: "Gemcitabine"
        value: "GEMCITABINE"
      - displayValue: "Gemzar"
        value: "GEMZAR"
      - displayValue: "Lapatinib"
        value: "LAPATINIB"
      - displayValue: "Tykerb"
        value: "TYKERB"
      - displayValue: "Neratinib"
        value: "NERATINIB"
      - displayValue: "Nerlynx"
        value: "NERLYNX"
      - displayValue: "Paclitaxel"
        value: "PACLITAXEL"
      - displayValue: "Onxol"
        value: "ONXOL"
      - displayValue: "Taxol"
        value: "TAXOL"
      - displayValue: "Palbociclib"
        value: "PALBOCICLIB"
      - displayValue: "Ibrance"
        value: "IBRANCE"
      - displayValue: "Pembrolizumab"
        value: "PEMBROLIZUMAB"
      - displayValue: "Keytruda"
        value: "KEYTRUDA"
      - displayValue: "Pertuzumab"
        value: "PERTUZUMAB"
      - displayValue: "Perjeta"
        value: "PERJETA"
      - displayValue: "Petuzumab"
        value: "PETUZUMAB"
      - displayValue: "Raloxifene"
        value: "RALOXIFENE"
      - displayValue: "Evista"
        value: "EVISTA"
      - displayValue: "Ribociclib"
        value: "RIBOCICLIB"
      - displayValue: "Kisqali"
        value: "KISQALI"
      - displayValue: "Tamoxifen"
        value: "TAMOXIFEN"
      - displayValue: "Soltamox"
        value: "SOLTAMOX"
      - displayValue: "Trastuzumab"
        value: "TRASTUZUMAB"
      - displayValue: "Herceptin"
        value: "HERCEPTIN"
      - displayValue: "Tucatinib"
        value: "TUCATINIB"
      - displayValue: "Tukysa"
        value: "TUKYSA"
      - displayValue: "Vinflunnine"
        value: "VINFLUNNINE"
      - displayValue: "Javlor"
        value: "JAVLOR"
    selectionType: Single
    sdtmTarget:
      sdtmAnnotation: "CMTRT"
      sdtmVariables:
        -  "CMTRT"
  - name: CMPRESP
    variableName: CMPRESP
    dataElementConceptId: C171000
    prompt: Prespecified
    orderNumber: 5
    mandatoryVariable: true 
    dataType: text
    length: 1
    displayHidden: true 
    derivedVariable: false
    codelist:
      submissionValue: NY
      conceptId: C66742
      href: https://evsexplore.semantics.cancer.gov/evsexplore/concept/ncit/C66742
    selectionType: Single
    sdtmTarget:
      sdtmAnnotation: "CMPRESP"
      sdtmVariables:
        -  "CMPRESP"
  - name: CMOCCUR
    variableName: CMOCCUR
    dataElementConceptId: C127786
    prompt: Medication Taken
    orderNumber: 6
    mandatoryVariable: true 
    dataType: text
    length: 1
    displayHidden: true 
    derivedVariable: false
    codelist:
      submissionValue: NY
      conceptId: C66742
      href: https://evsexplore.semantics.cancer.gov/evsexplore/concept/ncit/C66742
    selectionType: Single
    sdtmTarget:
      sdtmAnnotation: "CMOCCUR"
      sdtmVariables:
        -  "CMOCCUR"
  - name: CMTRTSTT
    variableName: CMTRTSTT
    prompt: Treatment Setting
    orderNumber: 7
    mandatoryVariable: false
    dataType: text
    length: 200
    displayHidden: false
    derivedVariable: false
    codelist:
      submissionValue: TRTSET
      conceptId: C124308
      href: https://evsexplore.semantics.cancer.gov/evsexplore/concept/ncit/C124308
    valueList:
      - displayValue: "Adjuvant"
        value: "ADJUVANT"
      - displayValue: "Metastatic"
        value: "METASTATIC"
      - displayValue: "Neo-Adjuvant"
        value: "NEO-ADJUVANT"
    selectionType: Single
    sdtmTarget:
      sdtmAnnotation: "CMTRTSTT"
      sdtmVariables:
        -  "CMTRTSTT"
  - name: CMTRTINT
    variableName: CMTRTINT
    prompt: Treatment Intent
    orderNumber: 8
    mandatoryVariable: false
    dataType: text
    length: 200
    displayHidden: false
    derivedVariable: false
    codelist:
      submissionValue: TRTINTNT
      conceptId: C124307
      href: https://evsexplore.semantics.cancer.gov/evsexplore/concept/ncit/C124307
    valueList:
      - displayValue: "Palliative"
        value: "PALLIATIVE"
      - displayValue: "Curative"
        value: "CURATIVE"
    selectionType: Single
    sdtmTarget:
      sdtmAnnotation: "CMTRTINT"
      sdtmVariables:
        -  "CMTRTINT"
  - name: CMDSTXT
    variableName: CMDSTXT
    prompt: Dose
    orderNumber: 9
    mandatoryVariable: true 
    dataType: text
    length: 100
    displayHidden: false
    derivedVariable: false
    sdtmTarget:
      sdtmAnnotation: "CMDOSE;CMDOSTXT"
      sdtmVariables:
        -  "CMDOSE"
        -  "CMDOSTXT"
  - name: CMDOSU
    variableName: CMDOSU
    dataElementConceptId: C83034
    prompt: Unit
    orderNumber: 10
    mandatoryVariable: true 
    dataType: text
    length: 40
    displayHidden: false
    derivedVariable: false
    codelist:
      submissionValue: UNIT
      conceptId: C71620
      href: https://evsexplore.semantics.cancer.gov/evsexplore/concept/ncit/C71620
    selectionType: Single
    sdtmTarget:
      sdtmAnnotation: "CMDOSU"
      sdtmVariables:
        -  "CMDOSU"
  - name: CMDOSFRM
    variableName: CMDOSFRM
    dataElementConceptId: C83110
    prompt: Dose Form
    orderNumber: 11
    mandatoryVariable: false
    dataType: text
    length: 40
    displayHidden: false
    derivedVariable: false
    codelist:
      submissionValue: FRM
      conceptId: C66726
      href: https://evsexplore.semantics.cancer.gov/evsexplore/concept/ncit/C66726
    selectionType: Single
    sdtmTarget:
      sdtmAnnotation: "CMDOSFRM"
      sdtmVariables:
        -  "CMDOSFRM"
  - name: CMDOSFRQ
    variableName: CMDOSFRQ
    dataElementConceptId: C83042
    prompt: Frequency
    orderNumber: 12
    mandatoryVariable: false
    dataType: text
    length: 40
    displayHidden: false
    derivedVariable: false
    codelist:
      submissionValue: FREQ
      conceptId: C71113
      href: https://evsexplore.semantics.cancer.gov/evsexplore/concept/ncit/C71113
    selectionType: Single
    sdtmTarget:
      sdtmAnnotation: "CMDOSFRQ"
      sdtmVariables:
        -  "CMDOSFRQ"
  - name: CMDOSRGM
    variableName: CMDOSRGM
    prompt: Dose Regimen
    orderNumber: 13
    mandatoryVariable: false
    dataType: text
    length: 200
    displayHidden: false
    derivedVariable: false
    sdtmTarget:
      sdtmAnnotation: "CMDOSRGM"
      sdtmVariables:
        -  "CMDOSRGM"
  - name: CMROUTE
    variableName: CMROUTE
    dataElementConceptId: C83120
    prompt: Route
    orderNumber: 14
    mandatoryVariable: false
    dataType: text
    length: 200
    displayHidden: false
    derivedVariable: false
    codelist:
      submissionValue: ROUTE
      conceptId: C66729
      href: https://evsexplore.semantics.cancer.gov/evsexplore/concept/ncit/C66729
    selectionType: Single
    sdtmTarget:
      sdtmAnnotation: "CMROUTE"
      sdtmVariables:
        -  "CMROUTE"
  - name: CMSTDAT
    variableName: CMSTDTC
    dataElementConceptId: C83235
    prompt: Start Date
    orderNumber: 15
    mandatoryVariable: true 
    dataType: date
    length: 10
    displayHidden: false
    derivedVariable: false
    sdtmTarget:
      sdtmAnnotation: "CMSTDTC"
      sdtmVariables:
        -  "CMSTDTC"
  - name: CMSTTIM
    variableName: CMSTDTC
    dataElementConceptId: C83235
    prompt: Start Time
    orderNumber: 16
    mandatoryVariable: false
    dataType: time
    length: 5
    displayHidden: false
    derivedVariable: false
    sdtmTarget:
      sdtmAnnotation: "CMSTDTC"
      sdtmVariables:
        -  "CMSTDTC"
  - name: CMPRIOR
    variableName: CMPRIOR
    prompt: Prior to Study
    orderNumber: 17
    mandatoryVariable: false
    dataType: text
    length: 1
    displayHidden: false
    derivedVariable: false
    codelist:
      submissionValue: NY
      conceptId: C66742
      href: https://evsexplore.semantics.cancer.gov/evsexplore/concept/ncit/C66742
    selectionType: Single
    sdtmTarget:
      sdtmAnnotation: "[NOT SUBMITTED];CMSTRF;CMSTRTPT;CMSTTPT"
      sdtmVariables:
        -  "CMSTRF"
        -  "CMSTRTPT"
        -  "CMSTTPT"
  - name: CMENDAT
    variableName: CMENDTC
    dataElementConceptId: C83225
    prompt: End Date
    orderNumber: 18
    mandatoryVariable: false
    dataType: date
    length: 10
    displayHidden: false
    derivedVariable: false
    sdtmTarget:
      sdtmAnnotation: "CMENDTC"
      sdtmVariables:
        -  "CMENDTC"
  - name: CMENTIM
    variableName: CMENDTC
    dataElementConceptId: C83225
    prompt: End Time
    orderNumber: 19
    mandatoryVariable: false
    dataType: time
    length: 5
    displayHidden: false
    derivedVariable: false
    sdtmTarget:
      sdtmAnnotation: "CMENDTC"
      sdtmVariables:
        -  "CMENDTC"
  - name: CMONGO
    variableName: CMONGO
    prompt: Ongoing
    orderNumber: 20
    mandatoryVariable: false
    dataType: text
    length: 1
    displayHidden: false
    derivedVariable: false
    codelist:
      submissionValue: NY
      conceptId: C66742
      href: https://evsexplore.semantics.cancer.gov/evsexplore/concept/ncit/C66742
    selectionType: Single
    sdtmTarget:
      sdtmAnnotation: "[NOT SUBMITTED];CMENRF;CMENRTPT;CMENTPT"
      sdtmVariables:
        -  "CMENRF"
        -  "CMENRTPT"
        -  "CMENTPT"
  - name: CMRSDISC
    variableName: CMRSDISC
    prompt: Reason for Discontinuation
    orderNumber: 21
    mandatoryVariable: false
    dataType: text
    length: 200
    displayHidden: false
    derivedVariable: false
    valueList:
      - displayValue: "Completed Prescribed Regimen"
        value: "COMPLETED PRESCRIBED REGIMEN"
      - displayValue: "Disease Progression"
        value: "DISEASE PROGRESSION"
    selectionType: Single
    sdtmTarget:
      sdtmAnnotation: "CMRSDISC"
      sdtmVariables:
        -  "CMRSDISC"
