{
    "$defs": {
        "AssignedTerm": {
            "additionalProperties": false,
            "description": "",
            "properties": {
                "conceptId": {
                    "description": "C-code for assigned term in NCIt or left blank when CDISC terminology does not apply",
                    "pattern": "^(C[0123456789]+)$",
                    "type": [
                        "string",
                        "null"
                    ]
                },
                "value": {
                    "description": "Submission value for assigned term in NCIt if it exists, or an assigned value which will be the default value",
                    "type": "string"
                }
            },
            "required": [
                "value"
            ],
            "title": "AssignedTerm",
            "type": "object"
        },
        "CodeList": {
            "additionalProperties": false,
            "description": "",
            "properties": {
                "conceptId": {
                    "description": "C-code for a codelist in NCIt",
                    "pattern": "^(C[0123456789]+)$",
                    "type": "string"
                },
                "href": {
                    "description": "Link to NCIt for the codelist",
                    "type": [
                        "string",
                        "null"
                    ]
                },
                "submissionValue": {
                    "description": "CDISC submission value for the codelist",
                    "type": "string"
                }
            },
            "required": [
                "conceptId",
                "submissionValue"
            ],
            "title": "CodeList",
            "type": "object"
        },
        "CodeListTerm": {
            "additionalProperties": false,
            "description": "",
            "properties": {
                "termId": {
                    "description": "C-code term in subset codelist",
                    "pattern": "^(C[0123456789]+)$",
                    "type": "string"
                },
                "termValue": {
                    "description": "Submision value of term in subset codelist",
                    "type": "string"
                }
            },
            "required": [
                "termId",
                "termValue"
            ],
            "title": "CodeListTerm",
            "type": "object"
        },
        "ComparatorEnum": {
            "description": "",
            "enum": [
                "EQ",
                "IN"
            ],
            "title": "ComparatorEnum",
            "type": "string"
        },
        "LinkingPhraseEnum": {
            "description": "",
            "enum": [
                "assesses seriousness of",
                "assesses the severity of",
                "associates the tumor identified in",
                "decodes the value in",
                "describes actions taken",
                "describes relationship of",
                "describes the outcome of",
                "further describes the test in",
                "further specifies the anatomical location in",
                "groups tumor assessments used in overall response identified by",
                "groups values in",
                "groups, within an individual subject, values in",
                "identifies a pattern of",
                "identifies an observation described by",
                "identifies overall response supported by tumor assessments identified by",
                "identifies the image from the procedure in",
                "identifies the tumor found by the test in",
                "indicates occurrence of the value in",
                "indicates pre-specification of the value in",
                "indicates severity of",
                "indicates the previous irradiation status of the tumor identified by",
                "indicates the progression status of the previous irradiated tumor identified by",
                "is a dictionary-derived term for the value in",
                "is a dictionary-derived class code for the value in",
                "is a dictionary-derived class name for the value in",
                "is decoded by the value in",
                "is original text for",
                "is the administered amount of the treatment in",
                "is the administration anatomical location for the treatment in",
                "is the aspect of the event used to define the date in",
                "is the clinical significance interpretation for",
                "is the code for the value in",
                "is the dictionary code for the test in",
                "is the dictionary-derived term for the value in",
                "is the dictionary-derived class code for the value in",
                "is the dictionary-derived class name for the value in",
                "is the duration for",
                "is the end date for",
                "is the epoch of the performance of the test in",
                "is the frequency of administration of the amount in",
                "is the identifier for the source data used in the performance of the test in",
                "is the material type of the subject of the activity in",
                "is the medical condition that is the reason for the treatment in",
                "is the method for the test in",
                "is the part of the body through which is administered the treatment in",
                "is the physical form of the product in",
                "is the result of the test in",
                "is the role of the assessor who performed the test in",
                "is the specimen tested in",
                "is the start date for",
                "is the subject position during performance of the test in",
                "is the subject's fasting status during the performance of the test in",
                "is the unit for the value in",
                "is the unit for",
                "specifies the anatomical location in",
                "specifies the anatomical location of",
                "specifies the anatomical location of the performance of the test in",
                "specifies the severity of",
                "values are grouped by",
                "was the subject position during performance of the test in",
                "identifies the reference used in the genomic test in",
                "indicates heritability of the genetic variant in",
                "is an identifier for a published reference for the genetic variant in",
                "is an identifier for the copy, on one of two homologous chromosones, of the genetic variant in",
                "is an identifier for the genetic sequence of the genetic entity represented by",
                "is the chromosome that is the position of the result in",
                "is the clinical trial or treatment setting for",
                "is the date of occurrence",
                "is the date of occurrence for",
                "is the intended disease outcome for",
                "is the method of secondary analysis of results in",
                "is the numeric location, within a chromosone, genetic entity, or genetic sub-region, of the result in",
                "is the symbol for the genomic entity that is the position of the result in",
                "is the type of genomic entity that is the position of the result in",
                "is the genetic sub-location of the result in",
                "is the object of the observation in",
                "is an identifier for the evaluator with the role in",
                "is the severity of the toxicity in",
                "is a grouping of values in",
                "is the textual description of the intended dose regimen for",
                "is the reason for stopping administration of",
                "is the value of the property identified by",
                "is the name of the reference terminology for",
                "is the version of the reference terminology in"
            ],
            "title": "LinkingPhraseEnum",
            "type": "string"
        },
        "OriginSourceEnum": {
            "description": "Terminology relevant to the origin source for datasets in the Define-XML document.",
            "enum": [
                "Investigator",
                "Sponsor",
                "Subject",
                "Vendor"
            ],
            "title": "OriginSourceEnum",
            "type": "string"
        },
        "OriginTypeEnum": {
            "description": "Terminology relevant to the origin type for datasets in the Define-XML document.",
            "enum": [
                "Assigned",
                "Collected",
                "Derived",
                "Predecessor",
                "Protocol"
            ],
            "title": "OriginTypeEnum",
            "type": "string"
        },
        "PackageTypeEnum": {
            "description": "",
            "enum": [
                "sdtm"
            ],
            "title": "PackageTypeEnum",
            "type": "string"
        },
        "PredicateTermEnum": {
            "description": "",
            "enum": [
                "ASSESSES",
                "CLASSIFIES",
                "DECODES",
                "DESCRIBES",
                "GROUPS",
                "GROUPS_BY",
                "IDENTIFIES",
                "IDENTIFIES_OBSERVATION",
                "IDENTIFIES_PRODUCT_IN",
                "IDENTIFIES_TUMOR_IN",
                "INDICATES",
                "IS_ATTRIBUTE_FOR",
                "IS_DECODED_BY",
                "IS_DERIVED_FROM",
                "IS_EPOCH_OF",
                "IS_GROUPED_BY",
                "IS_INDICATOR_FOR",
                "IS_ORIGINAL_TEXT_FOR",
                "IS_POSITION_FOR",
                "IS_REASON_FOR",
                "IS_RESULT_OF",
                "IS_SPECIMEN_TESTED_IN",
                "IS_SUBJECT_STATE_FOR",
                "IS_TIMING_FOR",
                "IS_UNIT_FOR",
                "PERFORMED",
                "PERFORMS",
                "QUALIFIES",
                "SPECIFIES",
                "IS_VALUE_OF",
                "IS_REFERENCE_TERMINOLOGY_FOR"
            ],
            "title": "PredicateTermEnum",
            "type": "string"
        },
        "RelationShip": {
            "additionalProperties": false,
            "description": "",
            "properties": {
                "linkingPhrase": {
                    "$ref": "#/$defs/LinkingPhraseEnum",
                    "description": "Variable relationship descriptive linking phrase"
                },
                "object": {
                    "description": "Object in a variable relationship",
                    "type": "string"
                },
                "predicateTerm": {
                    "$ref": "#/$defs/PredicateTermEnum",
                    "description": "Short variable relationship linking phrase for programming purposes"
                },
                "subject": {
                    "description": "Subject in a variable relationship",
                    "type": "string"
                }
            },
            "required": [
                "subject",
                "linkingPhrase",
                "predicateTerm",
                "object"
            ],
            "title": "RelationShip",
            "type": "object"
        },
        "RoleEnum": {
            "description": "",
            "enum": [
                "Identifier",
                "Qualifier",
                "Timing",
                "Topic"
            ],
            "title": "RoleEnum",
            "type": "string"
        },
        "SDTMGroup": {
            "additionalProperties": false,
            "description": "",
            "properties": {
                "biomedicalConceptId": {
                    "description": "Biomedical Concept identifier foreign key",
                    "pattern": "^(C[0123456789]+|NEW_[A-Z]*[0123456789]*)$",
                    "type": [
                        "string",
                        "null"
                    ]
                },
                "datasetSpecializationId": {
                    "description": "Identifier for SDTM Value Level Metadata group",
                    "type": "string"
                },
                "domain": {
                    "description": "Domain for the SDTM specialization group",
                    "type": "string"
                },
                "packageDate": {
                    "description": "Biomedical Concept package release date indicating when the BC package was published to production",
                    "format": "date",
                    "type": "string"
                },
                "packageType": {
                    "$ref": "#/$defs/PackageTypeEnum",
                    "description": "Package type (sdtm for SDTM Dataset Specializations)"
                },
                "sdtmigEndVersion": {
                    "description": "The last SDTMIG version that is applicable to the BC dataset specialization",
                    "type": [
                        "string",
                        "null"
                    ]
                },
                "sdtmigStartVersion": {
                    "description": "The earliest SDTMIG version applicable to the BC dataset specialization",
                    "type": "string"
                },
                "shortName": {
                    "description": "SDTM group short name which provides a user friendly and intuitive name for the vlm_group_id",
                    "type": "string"
                },
                "source": {
                    "description": "SDTM VLM Source which categorizes VLM groups by topic variable",
                    "type": "string"
                },
                "variables": {
                    "description": "Variable included in the SDTM dataset specialization",
                    "items": {
                        "$ref": "#/$defs/SDTMVariable"
                    },
                    "type": "array"
                }
            },
            "required": [
                "packageDate",
                "packageType",
                "datasetSpecializationId",
                "domain",
                "shortName",
                "source",
                "sdtmigStartVersion",
                "variables"
            ],
            "title": "SDTMGroup",
            "type": "object"
        },
        "SDTMVariable": {
            "additionalProperties": false,
            "description": "",
            "properties": {
                "assignedTerm": {
                    "anyOf": [
                        {
                            "$ref": "#/$defs/AssignedTerm"
                        },
                        {
                            "type": "null"
                        }
                    ],
                    "description": "Assigned term"
                },
                "codelist": {
                    "anyOf": [
                        {
                            "$ref": "#/$defs/CodeList"
                        },
                        {
                            "type": "null"
                        }
                    ],
                    "description": "Codelist"
                },
                "comparator": {
                    "$ref": "#/$defs/ComparatorEnum",
                    "description": "Comparison operator for SDTM group variables included in VLM"
                },
                "dataElementConceptId": {
                    "description": "Biomedical Concept Data Element Concept identifier foreign key",
                    "pattern": "^(C[0123456789]+|NEW_[A-Z]*[0123456789]*)$",
                    "type": [
                        "string",
                        "null"
                    ]
                },
                "dataType": {
                    "$ref": "#/$defs/SDTMVariableDataTypeEnum",
                    "description": "Variable data type"
                },
                "format": {
                    "description": "Variable display format",
                    "type": [
                        "string",
                        "null"
                    ]
                },
                "isNonStandard": {
                    "description": "Flag that indicates if the variable is a non-standard variable",
                    "type": [
                        "boolean",
                        "null"
                    ]
                },
                "length": {
                    "description": "Variable length",
                    "minimum": 1,
                    "type": [
                        "integer",
                        "null"
                    ]
                },
                "mandatoryValue": {
                    "description": "Indicator that variable must be populated within the SDTM group",
                    "type": [
                        "boolean",
                        "null"
                    ]
                },
                "mandatoryVariable": {
                    "description": "Indicator that variable must be present within the SDTM group",
                    "type": [
                        "boolean",
                        "null"
                    ]
                },
                "name": {
                    "description": "Variable included in the SDTM dataset specialization",
                    "type": "string"
                },
                "originSource": {
                    "$ref": "#/$defs/OriginSourceEnum",
                    "description": "Variable origin source (define-XML v21)"
                },
                "originType": {
                    "$ref": "#/$defs/OriginTypeEnum",
                    "description": "Variable origin type (define-XML v21)"
                },
                "relationship": {
                    "anyOf": [
                        {
                            "$ref": "#/$defs/RelationShip"
                        },
                        {
                            "type": "null"
                        }
                    ],
                    "description": "Relationship between variables"
                },
                "role": {
                    "$ref": "#/$defs/RoleEnum",
                    "description": "SDTM variable role"
                },
                "significantDigits": {
                    "description": "Variable significant_digits",
                    "type": [
                        "integer",
                        "null"
                    ]
                },
                "subsetCodelist": {
                    "description": "Subset codelist short name",
                    "type": [
                        "string",
                        "null"
                    ]
                },
                "valueList": {
                    "description": "List of SDTM submission values used if subset codelist is not applicable",
                    "items": {
                        "type": "string"
                    },
                    "type": [
                        "array",
                        "null"
                    ]
                },
                "vlmTarget": {
                    "description": "Target variable for VLM",
                    "type": [
                        "boolean",
                        "null"
                    ]
                }
            },
            "required": [
                "name"
            ],
            "title": "SDTMVariable",
            "type": "object"
        },
        "SDTMVariableDataTypeEnum": {
            "description": "",
            "enum": [
                "datetime",
                "durationDatetime",
                "float",
                "integer",
                "text"
            ],
            "title": "SDTMVariableDataTypeEnum",
            "type": "string"
        },
        "SubsetCodeList": {
            "additionalProperties": false,
            "description": "",
            "properties": {
                "codelistTerm": {
                    "description": "Term in subset codelist",
                    "items": {
                        "$ref": "#/$defs/CodeListTerm"
                    },
                    "type": "array"
                },
                "parentCodelist": {
                    "description": "Subset codelist parent codelist",
                    "type": "string"
                },
                "subsetLabel": {
                    "description": "Subset codelist label",
                    "type": "string"
                },
                "subsetShortName": {
                    "description": "Subset codelist short name",
                    "type": "string"
                }
            },
            "required": [
                "parentCodelist",
                "subsetShortName",
                "subsetLabel",
                "codelistTerm"
            ],
            "title": "SubsetCodeList",
            "type": "object"
        }
    },
    "$id": "https://www.cdisc.org/cosmos/sdtm_v1.0",
    "$schema": "https://json-schema.org/draft/2019-09/schema",
    "additionalProperties": true,
    "description": "",
    "metamodel_version": "1.7.0",
    "properties": {
        "biomedicalConceptId": {
            "description": "Biomedical Concept identifier foreign key",
            "pattern": "^(C[0123456789]+|NEW_[A-Z]*[0123456789]*)$",
            "type": [
                "string",
                "null"
            ]
        },
        "datasetSpecializationId": {
            "description": "Identifier for SDTM Value Level Metadata group",
            "type": "string"
        },
        "domain": {
            "description": "Domain for the SDTM specialization group",
            "type": "string"
        },
        "packageDate": {
            "description": "Biomedical Concept package release date indicating when the BC package was published to production",
            "format": "date",
            "type": "string"
        },
        "packageType": {
            "$ref": "#/$defs/PackageTypeEnum",
            "description": "Package type (sdtm for SDTM Dataset Specializations)"
        },
        "sdtmigEndVersion": {
            "description": "The last SDTMIG version that is applicable to the BC dataset specialization",
            "type": [
                "string",
                "null"
            ]
        },
        "sdtmigStartVersion": {
            "description": "The earliest SDTMIG version applicable to the BC dataset specialization",
            "type": "string"
        },
        "shortName": {
            "description": "SDTM group short name which provides a user friendly and intuitive name for the vlm_group_id",
            "type": "string"
        },
        "source": {
            "description": "SDTM VLM Source which categorizes VLM groups by topic variable",
            "type": "string"
        },
        "variables": {
            "description": "Variable included in the SDTM dataset specialization",
            "items": {
                "$ref": "#/$defs/SDTMVariable"
            },
            "type": "array"
        }
    },
    "required": [
        "packageDate",
        "packageType",
        "datasetSpecializationId",
        "domain",
        "shortName",
        "source",
        "sdtmigStartVersion",
        "variables"
    ],
    "title": "COSMoS-Biomedical-Concepts-SDTM-Schema",
    "type": "object",
    "version": null
}