packageDate: "2025-12-31"
packageType: collection
collectionSpecializationId: URATESERPL_VERTICAL
shortName: Urate Concentration in Serum or Plasma (Vertical)
standard: CDASHIG
standardStartVersion: "2-3"
standardEndVersion:  
implementationOption: Vertical
scenario: Local Processing
domain: LB
biomedicalConceptId: C64814
sdtmDatasetSpecializationId: URATESERPL
items:
  - name: URATE_LBCAT
    variableName: LBCAT
    prompt: Lab Panel Name
    orderNumber: 1
    mandatoryVariable: false
    dataType: text
    length: 100
    displayHidden: true 
    prepopulatedValue:
      value: "CHEMISTRY"
    sdtmTarget:
      sdtmAnnotation: "LBCAT = CHEMISTRY"
      sdtmVariables:
        -  "LBCAT"
  - name: URATE_LBSCAT
    variableName: LBSCAT
    prompt: "Lab Sub-Panel Name"
    orderNumber: 2
    mandatoryVariable: false
    dataType: text
    length: 100
    displayHidden: true 
    sdtmTarget:
      sdtmAnnotation: "LBSCAT"
      sdtmVariables:
        -  "LBSCAT"
  - name: URATE_LBNAM
    variableName: LBNAM
    questionText: What was the name of the laboratory used?
    orderNumber: 3
    mandatoryVariable: false
    dataType: text
    length: 200
    displayHidden: false
    sdtmTarget:
      sdtmAnnotation: "LBNAM"
      sdtmVariables:
        -  "LBNAM"
  - name: URATE_LBDAT
    variableName: LBDAT
    dataElementConceptId: C82515
    prompt: Specimen Collection Date
    orderNumber: 4
    mandatoryVariable: false
    dataType: date
    length: 10
    displayHidden: false
    sdtmTarget:
      sdtmAnnotation: "LBDTC"
      sdtmVariables:
        -  "LBDTC"
  - name: URATE_LBSPEC
    variableName: LBSPEC
    dataElementConceptId: C70713
    prompt: Specimen Material
    orderNumber: 5
    mandatoryVariable: true 
    dataType: text
    length: 100
    displayHidden: false
    codelist:
      submissionValue: SPECTYPE
      conceptId: C78734
      href: https://evsexplore.semantics.cancer.gov/evsexplore/concept/ncit/C78734
    prepopulatedValue:
      value: "SERUM OR PLASMA"
      conceptId: C105706
    sdtmTarget:
      sdtmAnnotation: "LBSPEC = SERUM OR PLASMA"
      sdtmVariables:
        -  "LBSPEC"
  - name: URATE_LBFAST
    variableName: LBFAST
    dataElementConceptId: C93566
    questionText: Was the subject fasting?
    orderNumber: 6
    mandatoryVariable: false
    dataType: text
    length: 1
    displayHidden: false
    codelist:
      submissionValue: NY
      conceptId: C66742
      href: https://evsexplore.semantics.cancer.gov/evsexplore/concept/ncit/C66742
    valueList:
      - displayValue: "No"
        value: "N"
      - displayValue: "Yes"
        value: "Y"
    selectionType: Single
    sdtmTarget:
      sdtmAnnotation: "LBFAST"
      sdtmVariables:
        -  "LBFAST"
  - name: URATE_LBORRES
    variableName: LBORRES
    dataElementConceptId: C70856
    prompt: Urate
    orderNumber: 7
    mandatoryVariable: true 
    dataType: decimal
    length: 8
    significantDigits: 2
    displayHidden: false
    sdtmTarget:
      sdtmAnnotation: "LBORRES when LBTESTCD = URATE"
      sdtmVariables:
        -  "LBORRES"
        -  "LBTESTCD"
        -  "LBTEST"
  - name: URATE_LBORRESU
    variableName: LBORRESU
    dataElementConceptId: C48207
    prompt: Unit
    orderNumber: 8
    mandatoryVariable: true 
    dataType: text
    length: 20
    displayHidden: false
    codelist:
      submissionValue: UNIT
      conceptId: C71620
      href: https://evsexplore.semantics.cancer.gov/evsexplore/concept/ncit/C71620
    valueList:
      - displayValue: "mg/dL"
        value: "mg/dL"
      - displayValue: "mg/L"
        value: "mg/L"
      - displayValue: "umol/L"
        value: "umol/L"
      - displayValue: "mmol/L"
        value: "mmol/L"
    selectionType: Single
    sdtmTarget:
      sdtmAnnotation: "LBORRESU when LBTESTCD = URATE"
      sdtmVariables:
        -  "LBORRESU"
        -  "LBTESTCD"
        -  "LBTEST"
  - name: URATE_LBORNRLO
    variableName: LBORNRLO
    prompt: Normal Range Lower Limit
    orderNumber: 9
    mandatoryVariable: false
    dataType: decimal
    length: 8
    significantDigits: 2
    displayHidden: false
    sdtmTarget:
      sdtmAnnotation: "LBORNRLO"
      sdtmVariables:
        -  "LBORNRLO"
  - name: URATE_LBORNRHI
    variableName: LBORNRHI
    prompt: Normal Range Upper Limit
    orderNumber: 10
    mandatoryVariable: false
    dataType: decimal
    length: 8
    significantDigits: 2
    displayHidden: false
    sdtmTarget:
      sdtmAnnotation: "LBORNRHI"
      sdtmVariables:
        -  "LBORNRHI"
  - name: URATE_LBCLSIG
    variableName: LBCLSIG
    questionText: Was this result clinically significant?
    orderNumber: 11
    mandatoryVariable: false
    dataType: text
    length: 1
    displayHidden: false
    codelist:
      submissionValue: NY
      conceptId: C66742
      href: https://evsexplore.semantics.cancer.gov/evsexplore/concept/ncit/C66742
    valueList:
      - displayValue: "No"
        value: "N"
      - displayValue: "Yes"
        value: "Y"
    selectionType: Single
    sdtmTarget:
      sdtmAnnotation: "LBCLSIG"
      sdtmVariables:
        -  "LBCLSIG"
