packageDate: "2025-12-31"
packageType: collection
collectionSpecializationId: MCV_VERTICAL
shortName: Erythrocyte Mean Corpuscular Volume (Vertical)
standard: CDASHIG
standardStartVersion: "2-3"
standardEndVersion:  
implementationOption: Vertical
scenario: Local Processing
domain: LB
biomedicalConceptId: C64799
sdtmDatasetSpecializationId: MCV
items:
  - name: MCV_LBCAT
    variableName: LBCAT
    prompt: Lab Panel Name
    orderNumber: 1
    mandatoryVariable: false
    dataType: text
    length: 100
    displayHidden: true 
    prepopulatedValue:
      value: "HEMATOLOGY"
    sdtmTarget:
      sdtmAnnotation: "LBCAT"
      sdtmVariables:
        -  "LBCAT"
  - name: MCV_LBSCAT
    variableName: LBSCAT
    prompt: "Lab Sub-Panel Name"
    orderNumber: 2
    mandatoryVariable: false
    dataType: text
    length: 100
    displayHidden: true 
    sdtmTarget:
      sdtmAnnotation: "LBSCAT"
      sdtmVariables:
        -  "LBSCAT"
  - name: MCV_LBNAM
    variableName: LBNAM
    questionText: What was the name of the laboratory used?
    orderNumber: 3
    mandatoryVariable: false
    dataType: text
    length: 200
    displayHidden: false
    sdtmTarget:
      sdtmAnnotation: "LBNAM"
      sdtmVariables:
        -  "LBNAM"
  - name: MCV_LBDAT
    variableName: LBDAT
    dataElementConceptId: C82515
    prompt: Specimen Collection Date
    orderNumber: 4
    mandatoryVariable: false
    dataType: date
    length: 10
    displayHidden: false
    sdtmTarget:
      sdtmAnnotation: "LBDTC"
      sdtmVariables:
        -  "LBDTC"
  - name: MCV_LBSPEC
    variableName: LBSPEC
    dataElementConceptId: C70713
    prompt: Specimen Material
    orderNumber: 5
    mandatoryVariable: true 
    dataType: text
    length: 100
    displayHidden: false
    codelist:
      submissionValue: SPECTYPE
      conceptId: C78734
      href: https://evsexplore.semantics.cancer.gov/evsexplore/concept/ncit/C78734
    prepopulatedValue:
      value: "ERYTHROCYTES"
      conceptId: C12521
    sdtmTarget:
      sdtmAnnotation: "LBSPEC"
      sdtmVariables:
        -  "LBSPEC"
  - name: MCV_LBFAST
    variableName: LBFAST
    dataElementConceptId: C93566
    questionText: Was the subject fasting?
    orderNumber: 6
    mandatoryVariable: false
    dataType: text
    length: 1
    displayHidden: false
    codelist:
      submissionValue: NY
      conceptId: C66742
      href: https://evsexplore.semantics.cancer.gov/evsexplore/concept/ncit/C66742
    valueList:
      - displayValue: "No"
        value: "N"
      - displayValue: "Yes"
        value: "Y"
    selectionType: Single
    sdtmTarget:
      sdtmAnnotation: "LBFAST"
      sdtmVariables:
        -  "LBFAST"
  - name: MCV_LBORRES
    variableName: LBORRES
    dataElementConceptId: C70856
    prompt: Ery. Mean Corpuscular Volume
    orderNumber: 7
    mandatoryVariable: true 
    dataType: decimal
    length: 8
    significantDigits: 2
    displayHidden: false
    sdtmTarget:
      sdtmAnnotation: "LBORRES when LBTESTCD = MCV"
      sdtmVariables:
        -  "LBORRES"
        -  "LBTESTCD"
        -  "LBTEST"
  - name: MCV_LBORRESU
    variableName: LBORRESU
    dataElementConceptId: C44279
    prompt: Unit
    orderNumber: 8
    mandatoryVariable: true 
    dataType: text
    length: 20
    displayHidden: false
    codelist:
      submissionValue: UNIT
      conceptId: C71620
      href: https://evsexplore.semantics.cancer.gov/evsexplore/concept/ncit/C71620
    prepopulatedValue:
      value: "fL"
      conceptId: C64780
    sdtmTarget:
      sdtmAnnotation: "LBORRESU when LBTESTCD = MCV"
      sdtmVariables:
        -  "LBORRESU"
        -  "LBTESTCD"
        -  "LBTEST"
  - name: MCV_LBMETHOD
    variableName: LBMETHOD
    dataElementConceptId: C82535
    prompt: Method
    orderNumber: 9
    mandatoryVariable: false
    dataType: text
    length: 100
    displayHidden: false
    sdtmTarget:
      sdtmAnnotation: "LBMETHOD"
      sdtmVariables:
        -  "LBMETHOD"
  - name: MCV_LBORNRLO
    variableName: LBORNRLO
    prompt: Normal Range Lower Limit
    orderNumber: 10
    mandatoryVariable: false
    dataType: decimal
    length: 8
    significantDigits: 2
    displayHidden: false
    sdtmTarget:
      sdtmAnnotation: "LBORNRLO"
      sdtmVariables:
        -  "LBORNRLO"
  - name: MCV_LBORNRHI
    variableName: LBORNRHI
    prompt: Normal Range Upper Limit
    orderNumber: 11
    mandatoryVariable: false
    dataType: decimal
    length: 8
    significantDigits: 2
    displayHidden: false
    sdtmTarget:
      sdtmAnnotation: "LBORNRHI"
      sdtmVariables:
        -  "LBORNRHI"
  - name: MCV_LBCLSIG
    variableName: LBCLSIG
    questionText: Was this result clinically significant?
    orderNumber: 12
    mandatoryVariable: false
    dataType: text
    length: 1
    displayHidden: false
    codelist:
      submissionValue: NY
      conceptId: C66742
      href: https://evsexplore.semantics.cancer.gov/evsexplore/concept/ncit/C66742
    valueList:
      - displayValue: "No"
        value: "N"
      - displayValue: "Yes"
        value: "Y"
    selectionType: Single
    sdtmTarget:
      sdtmAnnotation: "LBCLSIG"
      sdtmVariables:
        -  "LBCLSIG"
