packageDate: "2025-12-31"
packageType: collection
collectionSpecializationId: MHALZHEIMERS_DENORMALIZED
shortName: "Medical History Prespecified: Alzheimer's Disease (Denormalized)"
standard: CDASHIG
standardStartVersion: "2-1"
standardEndVersion:  
implementationOption: Denormalized
categories:
  - "360"
domain: MH
biomedicalConceptId: C200145
sdtmDatasetSpecializationId: MHALZHEIMERS
items:
  - name: MHTERM
    variableName: MHTERM
    dataElementConceptId: C83118
    prompt: Medical History Term
    orderNumber: 1
    mandatoryVariable: true 
    dataType: text
    length: 200
    displayHidden: false
    derivedVariable: false
    prepopulatedValue:
      value: "ALZHEIMER'S DISEASE"
    sdtmTarget:
      sdtmAnnotation: "MHTERM = ALZHEIMER'S DISEASE"
      sdtmVariables:
        -  "MHTERM"
  - name: MHPRESP
    variableName: MHPRESP
    dataElementConceptId: C87897
    prompt: Prespecified Medical History Event
    orderNumber: 2
    mandatoryVariable: true 
    dataType: text
    length: 1
    displayHidden: true 
    derivedVariable: false
    codelist:
      submissionValue: NY
      conceptId: C66742
      href: https://evsexplore.semantics.cancer.gov/evsexplore/concept/ncit/C66742
    prepopulatedValue:
      value: "Y"
      conceptId: C49488
    sdtmTarget:
      sdtmAnnotation: "MHPRESP = Y"
      sdtmVariables:
        -  "MHPRESP"
  - name: MHOCCUR
    variableName: MHOCCUR
    dataElementConceptId: C83067
    prompt: Did the subject have Alzheimer's Disease
    orderNumber: 3
    mandatoryVariable: false
    dataType: text
    length: 1
    displayHidden: true 
    derivedVariable: false
    codelist:
      submissionValue: NY
      conceptId: C66742
      href: https://evsexplore.semantics.cancer.gov/evsexplore/concept/ncit/C66742
    prepopulatedValue:
      value: "Y"
      conceptId: C49488
    sdtmTarget:
      sdtmAnnotation: "MHOCCUR = Y"
      sdtmVariables:
        -  "MHOCCUR"
  - name: MHEVDTYP
    variableName: MHEVDTYP
    prompt: Medical History Event Date Type
    orderNumber: 4
    mandatoryVariable: true 
    dataType: text
    length: 100
    displayHidden: true 
    derivedVariable: false
    codelist:
      submissionValue: MHEDTTYP
      conceptId: C124301
      href: https://evsexplore.semantics.cancer.gov/evsexplore/concept/ncit/C124301
    prepopulatedValue:
      value: "SYMPTOM ONSET"
      conceptId: C124353
    sdtmTarget:
      sdtmAnnotation: "MHEVDTYP = SYMPTOM ONSET"
      sdtmVariables:
        -  "MHEVDTYP"
  - name: MHSTDAT
    variableName: MHSTDAT
    dataElementConceptId: C83338
    prompt: Alzheimer's Disease Symptom Start Date
    orderNumber: 5
    mandatoryVariable: true 
    dataType: date
    length: 10
    displayHidden: false
    derivedVariable: false
    sdtmTarget:
      sdtmAnnotation: "MHSTDTC"
      sdtmVariables:
        -  "MHSTDTC"
  - name: MHONGO
    variableName: MHONGO
    dataElementConceptId: C83068
    prompt: Ongoing
    orderNumber: 6
    mandatoryVariable: false
    dataType: text
    length: 1
    displayHidden: true 
    derivedVariable: false
    codelist:
      submissionValue: NY
      conceptId: C66742
      href: https://evsexplore.semantics.cancer.gov/evsexplore/concept/ncit/C66742
    prepopulatedValue:
      value: "Y"
      conceptId: C49488
    sdtmTarget:
      sdtmAnnotation: "MHENRF;MHENRTPT;MHENTPT"
      sdtmVariables:
        -  "MHENRF"
        -  "MHENRTPT"
        -  "MHENTPT"
