packageDate: "2025-12-31"
packageType: crf
crfSpecializationId: GLUCUA_DENORMALIZED
shortName: Glucose in Urine by Dipstickn (Denormalized)
standard: CDASHIG
standardStartVersion: "2-3"
standardEndVersion: ""
implementationOption: Denormalized
scenario: Local Processing
domain: LB
biomedicalConceptId: C105585
sdtmDatasetSpecializationId: GLUCUA
items:
  - name: GLUC_LBCAT
    variableName: LBCAT
    prompt: Lab Panel Name
    orderNumber: 1
    mandatoryVariable: false
    dataType: text
    length: 100
    displayHidden: true 
    derivedVariable: false
    prepopulatedValue:
      value: "CHEMISTRY"
    sdtmTarget:
      sdtmAnnotation: "LBCAT = CHEMISTRY"
      sdtmVariables:
        -  "LBCAT"
  - name: GLUC_LBSCAT
    variableName: LBSCAT
    prompt: "Lab Sub-Panel Name"
    orderNumber: 2
    mandatoryVariable: false
    dataType: text
    length: 100
    displayHidden: true 
    derivedVariable: false
    sdtmTarget:
      sdtmAnnotation: "LBSCAT"
      sdtmVariables:
        -  "LBSCAT"
  - name: GLUC_LBNAM
    variableName: LBNAM
    questionText: What was the name of the laboratory used?
    orderNumber: 3
    mandatoryVariable: false
    dataType: text
    length: 200
    displayHidden: false
    derivedVariable: false
    sdtmTarget:
      sdtmAnnotation: "LBNAM"
      sdtmVariables:
        -  "LBNAM"
  - name: GLUC_LBDAT
    variableName: LBDAT
    dataElementConceptId: C82515
    prompt: Specimen Collection Date
    orderNumber: 4
    mandatoryVariable: false
    dataType: date
    length: 10
    displayHidden: false
    derivedVariable: false
    sdtmTarget:
      sdtmAnnotation: "LBDTC"
      sdtmVariables:
        -  "LBDTC"
  - name: GLUC_LBSPEC
    variableName: LBSPEC
    dataElementConceptId: C70713
    prompt: Specimen Material
    orderNumber: 5
    mandatoryVariable: true 
    dataType: text
    length: 100
    displayHidden: false
    derivedVariable: false
    codelist:
      submissionValue: SPECTYPE
      conceptId: C78734
      href: https://evsexplore.semantics.cancer.gov/evsexplore/concept/ncit/C78734
    prepopulatedValue:
      value: "URINE"
      conceptId: C13283
    sdtmTarget:
      sdtmAnnotation: "LBSPEC = URINE"
      sdtmVariables:
        -  "LBSPEC"
  - name: GLUC_LBMETHOD
    variableName: LBMETHOD
    dataElementConceptId: C82535
    prompt: Method
    orderNumber: 6
    mandatoryVariable: false
    dataType: text
    length: 100
    displayHidden: false
    derivedVariable: false
    prepopulatedValue:
      value: "TEST STRIP"
      conceptId: C50322
    sdtmTarget:
      sdtmAnnotation: "LBMETHOD = TEST STRIP when LBTESTCD = GLUC"
      sdtmVariables:
        -  "LBMETHOD"
  - name: GLUC_LBFAST
    variableName: LBFAST
    dataElementConceptId: C93566
    questionText: Was the subject fasting?
    orderNumber: 7
    mandatoryVariable: false
    dataType: text
    length: 1
    displayHidden: false
    derivedVariable: false
    codelist:
      submissionValue: NY
      conceptId: C66742
      href: https://evsexplore.semantics.cancer.gov/evsexplore/concept/ncit/C66742
    valueList:
      - displayValue: "No"
        value: "N"
      - displayValue: "Yes"
        value: "Y"
    selectionType: Single
    sdtmTarget:
      sdtmAnnotation: "LBFAST"
      sdtmVariables:
        -  "LBFAST"
  - name: GLUC_LBORRES
    variableName: LBORRES
    dataElementConceptId: C70856
    prompt: Glucose
    orderNumber: 8
    mandatoryVariable: true 
    dataType: decimal
    length: 8
    significantDigits: 2
    displayHidden: false
    derivedVariable: false
    sdtmTarget:
      sdtmAnnotation: "LBORRES when LBTESTCD = GLUC"
      sdtmVariables:
        -  "LBORRES"
        -  "LBTESTCD"
        -  "LBTEST"
  - name: GLUC_LBORRESU
    variableName: LBORRESU
    dataElementConceptId: C48207
    prompt: Unit
    orderNumber: 9
    mandatoryVariable: true 
    dataType: text
    length: 20
    significantDigits: 2
    displayHidden: false
    derivedVariable: false
    codelist:
      submissionValue: UNIT
      conceptId: C71620
      href: https://evsexplore.semantics.cancer.gov/evsexplore/concept/ncit/C71620
    valueList:
      - displayValue: "mg/dL"
        value: "mg/dL"
      - displayValue: "mmol/L"
        value: "mmol/L"
      - displayValue: "umol/L"
        value: "umol/L"
    selectionType: Single
    sdtmTarget:
      sdtmAnnotation: "LBORRESU when LBTESTCD = GLUC"
      sdtmVariables:
        -  "LBORRESU"
        -  "LBTESTCD"
        -  "LBTEST"
  - name: GLUC_LBORNRLO
    variableName: LBORNRLO
    prompt: Normal Range Lower Limit
    orderNumber: 10
    mandatoryVariable: false
    dataType: decimal
    length: 8
    significantDigits: 2
    displayHidden: false
    derivedVariable: false
    sdtmTarget:
      sdtmAnnotation: "LBORNRLO"
      sdtmVariables:
        -  "LBORNRLO"
  - name: GLUC_LBORNRHI
    variableName: LBORNRHI
    prompt: Normal Range Upper Limit
    orderNumber: 11
    mandatoryVariable: false
    dataType: decimal
    length: 8
    significantDigits: 2
    displayHidden: false
    derivedVariable: false
    sdtmTarget:
      sdtmAnnotation: "LBORNRHI"
      sdtmVariables:
        -  "LBORNRHI"
  - name: GLUC_LBCLSIG
    variableName: LBCLSIG
    questionText: Was this result clinically significant?
    orderNumber: 12
    mandatoryVariable: false
    dataType: text
    length: 1
    displayHidden: false
    derivedVariable: false
    codelist:
      submissionValue: NY
      conceptId: C66742
      href: https://evsexplore.semantics.cancer.gov/evsexplore/concept/ncit/C66742
    valueList:
      - displayValue: "No"
        value: "N"
      - displayValue: "Yes"
        value: "Y"
    selectionType: Single
    sdtmTarget:
      sdtmAnnotation: "LBCLSIG"
      sdtmVariables:
        -  "LBCLSIG"
