packageDate: "2025-12-31"
packageType: crf
crfSpecializationId: HCGURIN_DENORMALIZED
shortName: HCG Presence in Urine (Denormalized)
standard: CDASHIG
standardStartVersion: "2-3"
standardEndVersion: ""
implementationOption: Denormalized
scenario: Local Processing
domain: LB
biomedicalConceptId: C64851
sdtmDatasetSpecializationId: HCGURIN
items:
  - name: HCG_LBCAT
    variableName: LBCAT
    prompt: Lab Panel Name
    orderNumber: 1
    mandatoryVariable: false
    dataType: text
    length: 100
    displayHidden: true 
    derivedVariable: false
    prepopulatedValue:
      value: "CHEMISTRY"
    sdtmTarget:
      sdtmAnnotation: "LBCAT"
      sdtmVariables:
        -  "LBCAT"
  - name: HCG_LBSCAT
    variableName: LBSCAT
    prompt: "Lab Sub-Panel Name"
    orderNumber: 2
    mandatoryVariable: false
    dataType: text
    length: 100
    displayHidden: true 
    derivedVariable: false
    sdtmTarget:
      sdtmAnnotation: "LBSCAT"
      sdtmVariables:
        -  "LBSCAT"
  - name: HCG_LBNAM
    variableName: LBNAM
    questionText: What was the name of the laboratory used?
    orderNumber: 3
    mandatoryVariable: false
    dataType: text
    length: 200
    displayHidden: false
    derivedVariable: false
    sdtmTarget:
      sdtmAnnotation: "LBNAM"
      sdtmVariables:
        -  "LBNAM"
  - name: HCG_LBDAT
    variableName: LBDAT
    dataElementConceptId: C82515
    prompt: Specimen Collection Date
    orderNumber: 4
    mandatoryVariable: false
    dataType: date
    length: 10
    displayHidden: false
    derivedVariable: false
    sdtmTarget:
      sdtmAnnotation: "LBDTC"
      sdtmVariables:
        -  "LBDTC"
  - name: HCG_LBSPEC
    variableName: LBSPEC
    dataElementConceptId: C70713
    prompt: Specimen Material
    orderNumber: 5
    mandatoryVariable: true 
    dataType: text
    length: 100
    displayHidden: false
    derivedVariable: false
    codelist:
      submissionValue: SPECTYPE
      conceptId: C78734
      href: https://evsexplore.semantics.cancer.gov/evsexplore/concept/ncit/C78734
    prepopulatedValue:
      value: "URINE"
      conceptId: C13283
    sdtmTarget:
      sdtmAnnotation: "LBSPEC"
      sdtmVariables:
        -  "LBSPEC"
  - name: HCG_LBORRES
    variableName: LBORRES
    dataElementConceptId: C70856
    prompt: Choriogonadotropin Beta
    orderNumber: 6
    mandatoryVariable: true 
    dataType: text
    length: 100
    displayHidden: false
    derivedVariable: false
    sdtmTarget:
      sdtmAnnotation: "LBORRES when LBTESTCD = HCG"
      sdtmVariables:
        -  "LBORRES"
        -  "LBTESTCD"
        -  "LBTEST"
  - name: HCG_LBORNRLO
    variableName: LBORNRLO
    prompt: Normal Range Lower Limit
    orderNumber: 8
    mandatoryVariable: false
    dataType: decimal
    length: 8
    significantDigits: 2
    displayHidden: false
    derivedVariable: false
    sdtmTarget:
      sdtmAnnotation: "LBORNRLO"
      sdtmVariables:
        -  "LBORNRLO"
  - name: HCG_LBORNRHI
    variableName: LBORNRHI
    prompt: Normal Range Upper Limit
    orderNumber: 9
    mandatoryVariable: false
    dataType: decimal
    length: 8
    significantDigits: 2
    displayHidden: false
    derivedVariable: false
    sdtmTarget:
      sdtmAnnotation: "LBORNRHI"
      sdtmVariables:
        -  "LBORNRHI"
  - name: HCG_LBCLSIG
    variableName: LBCLSIG
    questionText: Was this result clinically significant?
    orderNumber: 10
    mandatoryVariable: false
    dataType: text
    length: 1
    displayHidden: false
    derivedVariable: false
    codelist:
      submissionValue: NY
      conceptId: C66742
      href: https://evsexplore.semantics.cancer.gov/evsexplore/concept/ncit/C66742
    valueList:
      - displayValue: "No"
        value: "N"
      - displayValue: "Yes"
        value: "Y"
    selectionType: Single
    sdtmTarget:
      sdtmAnnotation: "LBCLSIG"
      sdtmVariables:
        -  "LBCLSIG"
