packageDate: "2025-12-31"
packageType: crf
crfSpecializationId: MEDHISTPRESP_NORMALIZED
shortName: Medical History Prespecified (Normalized)
standard: CDASHIG
standardStartVersion: "2-1"
standardEndVersion:  
implementationOption: Normalized
domain: MH
biomedicalConceptId: C200145
sdtmDatasetSpecializationId: MEDHISTPRESP
items:
  - name: MHCAT
    variableName: MHCAT
    dataElementConceptId: C83018
    prompt: Medical History Category
    orderNumber: 1
    mandatoryVariable: false
    dataType: text
    length: 200
    displayHidden: true 
    derivedVariable: false
    prepopulatedValue:
      value: "DISEASE-SPECIFIC MEDICAL HISTORY"
    sdtmTarget:
      sdtmAnnotation: "MHCAT = DISEASE-SPECIFIC MEDICAL HISTORY"
      sdtmVariables:
        -  "MHCAT"
  - name: MHSCAT
    variableName: MHSCAT
    dataElementConceptId: C83143
    prompt: Medical History Subcategory
    orderNumber: 2
    mandatoryVariable: false
    dataType: text
    length: 200
    displayHidden: true 
    derivedVariable: false
    sdtmTarget:
      sdtmAnnotation: "MHSCAT"
      sdtmVariables:
        -  "MHSCAT"
  - name: MHTERM
    variableName: MHTERM
    dataElementConceptId: C83118
    prompt: Medical History Term
    orderNumber: 3
    mandatoryVariable: true 
    dataType: text
    length: 200
    displayHidden: false
    derivedVariable: false
    sdtmTarget:
      sdtmAnnotation: "MHTERM"
      sdtmVariables:
        -  "MHTERM"
  - name: MHPRESP
    variableName: MHPRESP
    dataElementConceptId: C87897
    prompt: Prespecified Medical History Event
    orderNumber: 4
    mandatoryVariable: true 
    dataType: text
    length: 1
    displayHidden: true 
    derivedVariable: false
    codelist:
      submissionValue: NY
      conceptId: C66742
      href: https://evsexplore.semantics.cancer.gov/evsexplore/concept/ncit/C66742
    prepopulatedValue:
      value: "Y"
      conceptId: C49488
    sdtmTarget:
      sdtmAnnotation: "MHPRESP = Y"
      sdtmVariables:
        -  "MHPRESP"
  - name: MHOCCUR
    variableName: MHOCCUR
    dataElementConceptId: C83067
    prompt: Did the subject have [prespecified medical event]
    orderNumber: 5
    mandatoryVariable: true 
    dataType: text
    length: 1
    displayHidden: false
    derivedVariable: false
    codelist:
      submissionValue: NY
      conceptId: C66742
      href: https://evsexplore.semantics.cancer.gov/evsexplore/concept/ncit/C66742
    valueList:
      - displayValue: "No"
        value: "N"
      - displayValue: "Yes"
        value: "Y"
    selectionType: Single
    sdtmTarget:
      sdtmAnnotation: "MHOCCUR"
      sdtmVariables:
        -  "MHOCCUR"
  - name: MHSTDAT
    variableName: MHSTDAT
    dataElementConceptId: C83338
    prompt: Start Date
    orderNumber: 6
    mandatoryVariable: true 
    dataType: date
    length: 10
    displayHidden: false
    derivedVariable: false
    sdtmTarget:
      sdtmAnnotation: "MHSTDTC"
      sdtmVariables:
        -  "MHSTDTC"
  - name: MHENDAT
    variableName: MHENDAT
    dataElementConceptId: C83330
    prompt: End Date
    orderNumber: 7
    mandatoryVariable: false
    dataType: date
    length: 10
    displayHidden: false
    derivedVariable: false
    sdtmTarget:
      sdtmAnnotation: "MHENDTC"
      sdtmVariables:
        -  "MHENDTC"
  - name: MHONGO
    variableName: MHONGO
    dataElementConceptId: C83068
    prompt: "Ongoing (as of the [study-specific timepoint or period])"
    orderNumber: 8
    mandatoryVariable: false
    dataType: text
    length: 1
    displayHidden: false
    derivedVariable: false
    codelist:
      submissionValue: NY
      conceptId: C66742
      href: https://evsexplore.semantics.cancer.gov/evsexplore/concept/ncit/C66742
    valueList:
      - displayValue: "No"
        value: "N"
      - displayValue: "Yes"
        value: "Y"
    selectionType: Single
    sdtmTarget:
      sdtmAnnotation: "[NOT SUBMITTED];MHENRF;MHENRTPT;MHENTPT"
      sdtmVariables:
        -  "MHENRF"
        -  "MHENRTPT"
        -  "MHENTPT"
