packageDate: "2026-07-31"
packageType: crf
crfSpecializationId: MEDHISTFREE_NORMALIZED
shortName: Medical History Free Text Format (Normalized)
standard: CDASHIG
standardStartVersion: "2-1"
standardEndVersion: ""
implementationOption: Normalized
domain: MH
biomedicalConceptId: C200145
sdtmDatasetSpecializationId: MEDHISTFREE
items:
  - name: MHCAT
    variableName: MHCAT
    dataElementConceptId: C25372
    prompt: Medical History Category
    orderNumber: 1
    mandatoryVariable: false
    dataType: text
    length: 200
    displayHidden: true 
    derivedVariable: false
    prepopulatedValue:
      value: "GENERAL MEDICAL HISTORY"
    sdtmTarget:
      sdtmAnnotation: "MHCAT = GENERAL MEDICAL HISTORY"
      sdtmVariables:
        -  "MHCAT"
  - name: MHSCAT
    variableName: MHSCAT
    dataElementConceptId: C25692
    prompt: Medical History Subcategory
    orderNumber: 2
    mandatoryVariable: false
    dataType: text
    length: 200
    displayHidden: true 
    derivedVariable: false
    sdtmTarget:
      sdtmAnnotation: "MHSCAT"
      sdtmVariables:
        -  "MHSCAT"
  - name: MHSPID
    variableName: MHSPID
    prompt: Event Identifier
    orderNumber: 3
    mandatoryVariable: false
    dataType: integer
    length: 2
    displayHidden: false
    derivedVariable: false
    sdtmTarget:
      sdtmAnnotation: "MHSPID"
      sdtmVariables:
        -  "MHSPID"
  - name: MHTERM
    variableName: MHTERM
    dataElementConceptId: C83118
    prompt: Medical History Term
    orderNumber: 4
    mandatoryVariable: true 
    dataType: text
    length: 200
    displayHidden: false
    derivedVariable: false
    sdtmTarget:
      sdtmAnnotation: "MHTERM"
      sdtmVariables:
        -  "MHTERM"
  - name: MHSTDAT
    variableName: MHSTDAT
    dataElementConceptId: C83338
    prompt: Start Date
    orderNumber: 5
    mandatoryVariable: false
    dataType: date
    length: 10
    displayHidden: false
    derivedVariable: false
    sdtmTarget:
      sdtmAnnotation: "MHSTDTC"
      sdtmVariables:
        -  "MHSTDTC"
  - name: MHPRIOR
    variableName: MHPRIOR
    prompt: Prior to Study
    orderNumber: 6
    mandatoryVariable: false
    dataType: text
    length: 1
    displayHidden: false
    derivedVariable: false
    codelist:
      submissionValue: NY
      conceptId: C66742
      href: https://evsexplore.semantics.cancer.gov/evsexplore/concept/ncit/C66742
    valueList:
      - displayValue: "No"
        value: "N"
      - displayValue: "Yes"
        value: "Y"
    selectionType: Single
    sdtmTarget:
      sdtmAnnotation: "[NOT SUBMITTED];MHSTRF;MHSTRTPT;MHSTTPT"
      sdtmVariables:
        -  "MHSTRF"
        -  "MHSTRTPT"
        -  "MHSTTPT"
  - name: MHENDAT
    variableName: MHENDAT
    dataElementConceptId: C83330
    prompt: End Date
    orderNumber: 7
    mandatoryVariable: false
    dataType: date
    length: 10
    displayHidden: false
    derivedVariable: false
    sdtmTarget:
      sdtmAnnotation: "MHENDTC"
      sdtmVariables:
        -  "MHENDTC"
  - name: MHONGO
    variableName: MHONGO
    dataElementConceptId: C83068
    prompt: "Ongoing (as of the [study-specific timepoint or period])"
    orderNumber: 8
    mandatoryVariable: false
    dataType: text
    length: 1
    displayHidden: false
    derivedVariable: false
    codelist:
      submissionValue: NY
      conceptId: C66742
      href: https://evsexplore.semantics.cancer.gov/evsexplore/concept/ncit/C66742
    valueList:
      - displayValue: "No"
        value: "N"
      - displayValue: "Yes"
        value: "Y"
    selectionType: Single
    sdtmTarget:
      sdtmAnnotation: "MHENRF;MHENRTPT;MHENTPT"
      sdtmVariables:
        -  "MHENRF"
        -  "MHENRTPT"
        -  "MHENTPT"
