packageDate: "2026-07-31"
packageType: crf
crfSpecializationId: CMPRIORCANCER_NORMALIZED
shortName: "Prior Anti-Cancer Therapy (Normalized)"
standard: CDASHIG
standardStartVersion: "2-3"
standardEndVersion: ""
implementationOption: Normalized
scenario: Free Text Anti-Cancer Therapy
domain: CM
biomedicalConceptId: C53630
sdtmDatasetSpecializationId: CMPRIORCANCER
items:
  - name: CMCAT
    variableName: CMCAT
    dataElementConceptId: C25372
    prompt: Concomitant Medication Category
    orderNumber: 1
    mandatoryVariable: false
    dataType: text
    length: 200
    displayHidden: true 
    derivedVariable: false
    prepopulatedValue:
      value: "ANTI-CANCER THERAPY"
    sdtmTarget:
      sdtmAnnotation: "CMCAT = ANTI-CANCER THERAPY"
      sdtmVariables:
        -  "CMCAT"
  - name: CMSCAT
    variableName: CMSCAT
    dataElementConceptId: C25692
    prompt: Concomitant Medication Subcategory
    orderNumber: 2
    mandatoryVariable: false
    dataType: text
    length: 200
    displayHidden: true 
    derivedVariable: false
    prepopulatedValue:
      value: "PRIOR"
    sdtmTarget:
      sdtmAnnotation: "CMSCAT = PRIOR"
      sdtmVariables:
        -  "CMSCAT"
  - name: CMINDC
    variableName: CMINDC
    dataElementConceptId: C83085
    prompt: Indication
    orderNumber: 3
    mandatoryVariable: false
    dataType: text
    length: 200
    displayHidden: true 
    derivedVariable: false
    sdtmTarget:
      sdtmAnnotation: "CMINDC"
      sdtmVariables:
        -  "CMINDC"
  - name: CMGRPID
    variableName: CMGRPID
    prompt: Regimen Identifier
    orderNumber: 4
    mandatoryVariable: true 
    dataType: text
    length: 20
    displayHidden: false
    derivedVariable: false
    valueList:
      - displayValue: "1"
        value: "1"
      - displayValue: "2"
        value: "2"
    selectionType: Single
    sdtmTarget:
      sdtmAnnotation: "CMGRPID"
      sdtmVariables:
        -  "CMGRPID"
  - name: CMTRT
    variableName: CMTRT
    dataElementConceptId: C70902
    prompt: Concomitant Medication Name
    orderNumber: 5
    mandatoryVariable: true 
    dataType: text
    length: 200
    displayHidden: false
    derivedVariable: false
    sdtmTarget:
      sdtmAnnotation: "CMTRT"
      sdtmVariables:
        -  "CMTRT"
  - name: CMOCCUR
    variableName: CMOCCUR
    dataElementConceptId: C127786
    prompt: Medication Taken
    orderNumber: 6
    mandatoryVariable: true 
    dataType: text
    length: 1
    displayHidden: true 
    derivedVariable: false
    codelist:
      submissionValue: NY
      conceptId: C66742
      href: https://evsexplore.semantics.cancer.gov/evsexplore/concept/ncit/C66742
    valueList:
      - displayValue: "No"
        value: "N"
      - displayValue: "Yes"
        value: "Y"
    selectionType: Single
    sdtmTarget:
      sdtmAnnotation: "CMOCCUR"
      sdtmVariables:
        -  "CMOCCUR"
  - name: CMTRTSTT
    variableName: CMTRTSTT
    prompt: Treatment Setting
    orderNumber: 7
    mandatoryVariable: false
    dataType: text
    length: 200
    displayHidden: false
    derivedVariable: false
    codelist:
      submissionValue: TRTSET
      conceptId: C124308
      href: https://evsexplore.semantics.cancer.gov/evsexplore/concept/ncit/C124308
    valueList:
      - displayValue: "Adjuvant"
        value: "ADJUVANT"
      - displayValue: "Metastatic"
        value: "METASTATIC"
      - displayValue: "Neo-Adjuvant"
        value: "NEO-ADJUVANT"
      - displayValue: "Locally Advanced"
        value: "LOCALLY ADVANCED"
    selectionType: Single
    sdtmTarget:
      sdtmAnnotation: "CMTRTSTT"
      sdtmVariables:
        -  "CMTRTSTT"
  - name: CMTRTINT
    variableName: CMTRTINT
    prompt: Treatment Intent
    orderNumber: 8
    mandatoryVariable: false
    dataType: text
    length: 200
    displayHidden: false
    derivedVariable: false
    codelist:
      submissionValue: TRTINTNT
      conceptId: C124307
      href: https://evsexplore.semantics.cancer.gov/evsexplore/concept/ncit/C124307
    valueList:
      - displayValue: "Palliative"
        value: "PALLIATIVE"
      - displayValue: "Curative"
        value: "CURATIVE"
    selectionType: Single
    sdtmTarget:
      sdtmAnnotation: "CMTRTINT"
      sdtmVariables:
        -  "CMTRTINT"
  - name: CMDSTXT
    variableName: CMDSTXT
    prompt: Dose per administration
    orderNumber: 9
    mandatoryVariable: true 
    dataType: text
    length: 100
    displayHidden: false
    derivedVariable: false
    sdtmTarget:
      sdtmAnnotation: "CMDOSE;CMDOSTXT"
      sdtmVariables:
        -  "CMDOSE"
        -  "CMDOSTXT"
  - name: CMDOSU
    variableName: CMDOSU
    dataElementConceptId: C83034
    prompt: Dose Unit
    orderNumber: 10
    mandatoryVariable: true 
    dataType: text
    length: 40
    displayHidden: false
    derivedVariable: false
    codelist:
      submissionValue: UNIT
      conceptId: C71620
      href: https://evsexplore.semantics.cancer.gov/evsexplore/concept/ncit/C71620
    selectionType: Single
    sdtmTarget:
      sdtmAnnotation: "CMDOSU"
      sdtmVariables:
        -  "CMDOSU"
  - name: CMDOSFRM
    variableName: CMDOSFRM
    dataElementConceptId: C83110
    prompt: Dose Form
    orderNumber: 11
    mandatoryVariable: false
    dataType: text
    length: 40
    displayHidden: false
    derivedVariable: false
    codelist:
      submissionValue: FRM
      conceptId: C66726
      href: https://evsexplore.semantics.cancer.gov/evsexplore/concept/ncit/C66726
    selectionType: Single
    sdtmTarget:
      sdtmAnnotation: "CMDOSFRM"
      sdtmVariables:
        -  "CMDOSFRM"
  - name: CMDOSFRQ
    variableName: CMDOSFRQ
    dataElementConceptId: C83042
    prompt: Frequency
    orderNumber: 12
    mandatoryVariable: false
    dataType: text
    length: 40
    displayHidden: false
    derivedVariable: false
    codelist:
      submissionValue: FREQ
      conceptId: C71113
      href: https://evsexplore.semantics.cancer.gov/evsexplore/concept/ncit/C71113
    selectionType: Single
    sdtmTarget:
      sdtmAnnotation: "CMDOSFRQ"
      sdtmVariables:
        -  "CMDOSFRQ"
  - name: CMDOSRGM
    variableName: CMDOSRGM
    prompt: Dose Regimen
    orderNumber: 13
    mandatoryVariable: false
    dataType: text
    length: 200
    displayHidden: false
    derivedVariable: false
    selectionType: Single
    sdtmTarget:
      sdtmAnnotation: "CMDOSRGM"
      sdtmVariables:
        -  "CMDOSRGM"
  - name: CMROUTE
    variableName: CMROUTE
    dataElementConceptId: C83120
    prompt: Route
    orderNumber: 14
    mandatoryVariable: false
    dataType: text
    length: 200
    displayHidden: false
    derivedVariable: false
    codelist:
      submissionValue: ROUTE
      conceptId: C66729
      href: https://evsexplore.semantics.cancer.gov/evsexplore/concept/ncit/C66729
    selectionType: Single
    sdtmTarget:
      sdtmAnnotation: "CMROUTE"
      sdtmVariables:
        -  "CMROUTE"
  - name: CMSTDAT
    variableName: CMSTDTC
    dataElementConceptId: C83235
    prompt: Start Date
    orderNumber: 15
    mandatoryVariable: true 
    dataType: date
    length: 10
    displayHidden: false
    derivedVariable: false
    sdtmTarget:
      sdtmAnnotation: "CMSTDTC"
      sdtmVariables:
        -  "CMSTDTC"
  - name: CMSTTIM
    variableName: CMSTDTC
    dataElementConceptId: C83235
    prompt: Start Time
    orderNumber: 16
    mandatoryVariable: false
    dataType: time
    length: 5
    displayHidden: false
    derivedVariable: false
    sdtmTarget:
      sdtmAnnotation: "CMSTDTC"
      sdtmVariables:
        -  "CMSTDTC"
  - name: CMPRIOR
    variableName: CMPRIOR
    prompt: Prior to Study
    orderNumber: 17
    mandatoryVariable: false
    dataType: text
    length: 1
    displayHidden: true 
    derivedVariable: false
    codelist:
      submissionValue: NY
      conceptId: C66742
      href: https://evsexplore.semantics.cancer.gov/evsexplore/concept/ncit/C66742
    prepopulatedValue:
      value: "Y"
    sdtmTarget:
      sdtmAnnotation: "CMSTRF; CMSTRTPT;CMSTPTP"
      sdtmVariables:
        -  "CMSTRF"
        -  "CMSTRTPT"
        -  "CMSTPTP"
  - name: CMENDAT
    variableName: CMENDTC
    dataElementConceptId: C83225
    prompt: End Date
    orderNumber: 18
    mandatoryVariable: false
    dataType: date
    length: 10
    displayHidden: false
    derivedVariable: false
    sdtmTarget:
      sdtmAnnotation: "CMENDTC"
      sdtmVariables:
        -  "CMENDTC"
  - name: CMENTIM
    variableName: CMENDTC
    dataElementConceptId: C83225
    prompt: End Time
    orderNumber: 19
    mandatoryVariable: false
    dataType: time
    length: 5
    displayHidden: false
    derivedVariable: false
    sdtmTarget:
      sdtmAnnotation: "CMENDTC"
      sdtmVariables:
        -  "CMENDTC"
  - name: CMONGO
    variableName: CMONGO
    prompt: Ongoing
    orderNumber: 20
    mandatoryVariable: false
    dataType: text
    length: 1
    displayHidden: false
    derivedVariable: false
    codelist:
      submissionValue: NY
      conceptId: C66742
      href: https://evsexplore.semantics.cancer.gov/evsexplore/concept/ncit/C66742
    valueList:
      - displayValue: "No"
        value: "N"
      - displayValue: "Yes"
        value: "Y"
    selectionType: Single
    sdtmTarget:
      sdtmAnnotation: "CMENRF;CMENRTPT;CMENTPT"
      sdtmVariables:
        -  "CMENRF"
        -  "CMENRTPT"
        -  "CMENTPT"
  - name: CMRSDISC
    variableName: CMRSDISC
    prompt: Reason for Discontinuation
    orderNumber: 21
    mandatoryVariable: false
    dataType: text
    length: 200
    displayHidden: false
    derivedVariable: false
    valueList:
      - displayValue: "Completed Prescribed Regimen"
        value: "COMPLETED PRESCRIBED REGIMEN"
      - displayValue: "Disease Progression"
        value: "DISEASE PROGRESSION"
      - displayValue: "Toxicity"
        value: "TOXICITY"
    selectionType: Single
    sdtmTarget:
      sdtmAnnotation: "CMRSDISC"
      sdtmVariables:
        -  "CMRSDISC"
